Subject,S-R mapping,Trial number,Stimulus,Response,RT
1,0,1,1,1,553
1,0,2,1,1,584
1,0,3,0,0,593
1,0,4,0,0,639
1,0,5,1,1,632
1,0,6,0,0,543
1,0,7,1,1,603
1,0,8,1,1,654
1,0,9,0,0,595
1,0,10,0,0,566
1,0,11,0,0,521
1,0,12,0,0,619
1,0,13,0,0,482
1,0,14,0,0,514
1,0,15,0,0,421
1,0,16,1,1,633
1,0,17,0,0,514
1,0,18,1,1,613
1,0,19,0,0,508
1,0,20,1,1,621
1,0,21,0,0,473
1,0,22,0,0,516
1,0,23,0,0,507
1,0,24,1,1,577
1,0,25,0,0,536
1,0,26,1,1,637
1,0,27,1,1,474
1,0,28,1,1,681
1,0,29,0,0,596
1,0,30,1,1,548
1,0,31,1,1,526
1,0,32,1,1,603
1,0,33,0,0,678
1,0,34,1,1,672
1,0,35,1,1,637
1,0,36,0,0,547
1,0,37,1,1,583
1,0,38,0,0,511
1,0,39,1,1,628
1,0,40,0,0,742
1,0,41,0,0,567
1,0,42,1,1,659
1,0,43,0,0,663
1,0,44,1,1,661
1,0,45,1,1,550
1,0,46,0,0,640
1,0,47,0,0,521
1,0,48,0,0,584
1,0,49,1,1,470
1,0,50,0,0,546
1,0,51,1,1,599
1,0,52,0,0,622
1,0,53,0,0,464
1,0,54,0,0,487
1,0,55,0,0,449
1,0,56,1,1,429
1,0,57,1,1,552
1,0,58,1,1,625
1,0,59,1,1,542
1,0,60,0,0,668
1,0,61,1,1,548
1,0,62,0,0,467
1,0,63,1,1,617
1,0,64,0,0,438
1,0,65,0,0,554
1,0,66,0,0,627
1,0,67,0,0,584
1,0,68,0,0,456
1,0,69,0,0,509
1,0,70,0,0,572
1,0,71,0,0,601
1,0,72,0,0,585
1,0,73,1,1,625
1,0,74,0,0,538
1,0,75,1,1,516
1,0,76,1,1,646
1,0,77,0,0,569
1,0,78,1,1,569
1,0,79,0,0,623
1,0,80,0,0,565
1,0,81,0,0,589
1,0,82,1,1,699
1,0,83,1,1,545
1,0,84,0,0,684
1,0,85,0,0,587
1,0,86,1,1,503
1,0,87,0,0,535
1,0,88,0,0,555
1,0,89,1,1,595
1,0,90,0,0,567
1,0,91,0,0,550
1,0,92,0,0,567
1,0,93,0,0,557
1,0,94,1,1,601
1,0,95,0,0,479
1,0,96,1,1,621
1,0,97,1,1,682
1,0,98,1,1,583
1,0,99,1,1,492
1,0,100,1,1,541
1,0,101,1,1,481
1,0,102,1,1,627
1,0,103,0,0,581
1,0,104,1,1,611
1,0,105,0,0,533
1,0,106,1,1,673
1,0,107,1,1,663
1,0,108,0,0,480
1,0,109,1,1,539
1,0,110,0,0,701
1,0,111,1,1,618
1,0,112,0,0,551
1,0,113,1,1,636
1,0,114,1,1,734
1,0,115,1,1,545
1,0,116,0,0,691
1,0,117,1,1,661
1,0,118,0,0,695
1,0,119,1,1,645
1,0,120,0,0,607
1,0,121,1,1,583
1,0,122,0,0,484
1,0,123,1,1,595
1,0,124,0,0,587
1,0,125,1,1,638
1,0,126,1,1,619
1,0,127,0,0,490
1,0,128,1,1,539
1,0,129,1,1,689
1,0,130,0,0,770
1,0,131,1,1,566
1,0,132,0,0,592
1,0,133,0,0,613
1,0,134,0,0,630
1,0,135,1,1,675
1,0,136,1,1,652
1,0,137,0,0,717
1,0,138,0,0,656
1,0,139,0,0,586
1,0,140,1,1,665
1,0,141,0,0,690
1,0,142,0,0,507
1,0,143,0,0,500
1,0,144,0,0,559
1,0,145,1,1,567
1,0,146,1,1,619
1,0,147,1,1,713
1,0,148,1,1,567
1,0,149,1,1,651
1,0,150,1,1,652
1,0,151,0,0,605
1,0,152,0,0,607
1,0,153,1,1,600
1,0,154,0,0,644
1,0,155,1,1,671
1,0,156,1,1,655
1,0,157,0,0,665
1,0,158,0,0,535
1,0,159,0,0,557
1,0,160,1,1,642
1,0,161,0,0,570
1,0,162,0,0,501
1,0,163,1,0,481
1,0,164,0,0,646
1,0,165,0,0,781
1,0,166,0,0,683
1,0,167,0,0,570
1,0,168,0,0,524
1,0,169,1,1,777
1,0,170,1,1,733
1,0,171,1,1,622
1,0,172,1,1,583
1,0,173,1,1,565
1,0,174,1,1,603
1,0,175,0,0,680
1,0,176,0,0,573
1,0,177,0,0,533
1,0,178,0,0,563
1,0,179,0,0,547
1,0,180,0,0,536
1,0,181,1,1,497
1,0,182,0,0,544
1,0,183,1,1,497
1,0,184,1,1,537
1,0,185,1,1,804
1,0,186,1,1,531
1,0,187,1,1,591
1,0,188,1,1,659
1,0,189,0,0,590
1,0,190,1,1,636
1,0,191,1,1,568
1,0,192,0,0,561
1,0,193,1,1,690
1,0,194,1,1,647
1,0,195,1,1,606
1,0,196,0,0,592
1,0,197,0,0,505
1,0,198,1,1,585
1,0,199,0,0,468
1,0,200,0,0,450
1,0,201,1,1,618
1,0,202,0,0,432
1,0,203,0,0,493
1,0,204,0,0,475
1,0,205,0,0,465
1,0,206,0,0,433
1,0,207,1,1,395
1,0,208,1,1,369
1,0,209,1,1,477
1,0,210,0,0,535
1,0,211,1,1,457
1,0,212,1,1,639
1,0,213,1,1,366
1,0,214,0,0,408
1,0,215,1,1,403
1,0,216,0,0,553
1,0,217,0,1,443
1,0,218,0,0,674
1,0,219,1,1,695
1,0,220,1,1,628
1,0,221,0,0,587
1,0,222,0,0,503
1,0,223,1,1,449
1,0,224,1,1,532
1,0,225,0,0,489
1,0,226,1,1,482
1,0,227,0,0,585
1,0,228,1,1,472
1,0,229,0,0,554
1,0,230,0,0,604
1,0,231,0,0,535
1,0,232,1,1,500
1,0,233,1,1,590
1,0,234,0,0,564
1,0,235,1,1,418
1,0,236,0,0,577
1,0,237,1,1,467
1,0,238,1,1,453
1,0,239,1,1,452
1,0,240,1,1,460
1,0,241,0,0,585
1,0,242,1,1,488
1,0,243,0,0,508
1,0,244,0,0,532
1,0,245,0,0,483
1,0,246,1,1,482
1,0,247,0,0,552
1,0,248,1,1,537
1,0,249,0,0,712
1,0,250,1,1,650
1,0,251,0,0,520
1,0,252,0,0,505
1,0,253,1,1,577
1,0,254,1,1,535
1,0,255,1,1,427
1,0,256,0,0,430
1,0,257,0,0,535
1,0,258,1,1,502
1,0,259,0,0,661
1,0,260,0,0,578
1,0,261,0,0,497
1,0,262,0,0,535
1,0,263,1,1,489
1,0,264,1,1,545
1,0,265,1,1,424
1,0,266,1,1,448
1,0,267,1,1,550
1,0,268,0,0,561
1,0,269,1,1,430
1,0,270,1,1,511
1,0,271,0,0,597
1,0,272,1,1,599
1,0,273,1,1,504
1,0,274,1,1,510
1,0,275,0,0,577
1,0,276,0,0,596
1,0,277,0,0,478
1,0,278,0,0,510
1,0,279,0,0,523
1,0,280,1,1,479
1,0,281,1,1,585
1,0,282,1,1,429
1,0,283,0,0,550
1,0,284,1,1,449
1,0,285,1,1,392
1,0,286,1,1,433
1,0,287,0,0,557
1,0,288,0,0,507
1,0,289,1,1,477
1,0,290,0,0,527
1,0,291,1,1,496
1,0,292,1,1,468
1,0,293,0,0,517
1,0,294,1,1,442
1,0,295,1,1,502
1,0,296,0,0,600
1,0,297,0,0,514
1,0,298,0,0,530
1,0,299,1,1,422
1,0,300,0,0,524
1,0,301,1,1,444
1,0,302,1,1,534
1,0,303,1,1,393
1,0,304,0,0,460
1,0,305,1,1,443
1,0,306,1,1,564
1,0,307,1,1,472
1,0,308,0,0,555
1,0,309,0,0,482
1,0,310,0,0,497
1,0,311,0,0,483
1,0,312,1,1,575
1,0,313,0,0,515
1,0,314,0,0,510
1,0,315,0,0,589
1,0,316,1,1,672
1,0,317,0,0,598
1,0,318,0,0,469
1,0,319,0,1,520
1,0,320,1,1,655
1,0,321,1,1,639
1,0,322,1,1,554
1,0,323,1,1,521
1,0,324,0,0,562
1,0,325,0,0,545
1,0,326,0,0,587
1,0,327,0,0,666
1,0,328,0,0,484
1,0,329,0,0,481
1,0,330,1,1,591
1,0,331,0,0,571
1,0,332,0,0,574
1,0,333,0,0,528
1,0,334,0,0,516
1,0,335,0,0,499
1,0,336,0,0,484
1,0,337,0,0,496
1,0,338,1,1,587
1,0,339,0,0,564
1,0,340,0,0,860
1,0,341,1,1,478
1,0,342,0,0,572
1,0,343,0,0,549
1,0,344,0,0,642
1,0,345,1,1,569
1,0,346,1,1,606
1,0,347,1,1,649
1,0,348,1,1,598
1,0,349,1,1,487
1,0,350,1,1,606
1,0,351,1,1,506
1,0,352,1,1,546
1,0,353,1,1,536
1,0,354,1,1,572
1,0,355,1,1,610
1,0,356,1,1,645
1,0,357,0,0,628
1,0,358,0,0,510
1,0,359,1,1,551
1,0,360,1,1,723
1,0,361,0,0,535
1,0,362,0,0,521
1,0,363,1,1,407
1,0,364,1,1,477
1,0,365,0,0,549
1,0,366,1,1,653
1,0,367,1,1,503
1,0,368,1,1,575
1,0,369,0,0,489
1,0,370,1,1,697
1,0,371,0,0,729
1,0,372,0,0,514
1,0,373,0,0,521
1,0,374,0,0,431
1,0,375,1,1,466
1,0,376,1,1,537
1,0,377,1,1,438
1,0,378,1,1,445
1,0,379,0,0,550
1,0,380,1,1,502
1,0,381,1,1,432
1,0,382,1,1,574
1,0,383,0,0,489
1,0,384,1,1,519
1,0,385,1,1,547
1,0,386,0,0,634
1,0,387,1,1,480
1,0,388,0,0,627
1,0,389,0,0,634
1,0,390,0,0,526
1,0,391,1,1,521
1,0,392,1,1,610
1,0,393,0,0,487
1,0,394,1,1,518
1,0,395,1,1,565
1,0,396,0,0,521
1,0,397,0,0,504
1,0,398,0,0,542
1,0,399,1,1,480
1,0,400,0,0,552
1,0,401,1,1,539
1,0,402,1,1,482
1,0,403,1,1,464
1,0,404,1,1,464
1,0,405,1,1,488
1,0,406,0,0,577
1,0,407,1,1,521
1,0,408,0,0,627
1,0,409,0,0,525
1,0,410,1,1,478
1,0,411,1,1,479
1,0,412,1,1,529
1,0,413,1,1,489
1,0,414,1,1,431
1,0,415,1,1,422
1,0,416,1,1,534
1,0,417,1,1,463
1,0,418,0,0,464
1,0,419,1,1,563
1,0,420,0,0,531
1,0,421,1,1,420
1,0,422,0,0,520
1,0,423,1,1,513
1,0,424,0,0,499
1,0,425,0,0,512
1,0,426,0,0,475
1,0,427,0,0,457
1,0,428,0,0,496
1,0,429,0,0,426
1,0,430,1,1,623
1,0,431,0,0,685
1,0,432,1,1,718
1,0,433,1,1,661
1,0,434,0,0,531
1,0,435,1,1,643
1,0,436,0,0,536
1,0,437,1,1,529
1,0,438,1,1,511
1,0,439,0,0,639
1,0,440,1,1,579
1,0,441,0,0,832
1,0,442,1,1,646
1,0,443,1,1,629
1,0,444,0,0,477
1,0,445,1,1,553
1,0,446,1,1,631
1,0,447,0,0,569
1,0,448,1,1,562
1,0,449,1,1,597
1,0,450,0,0,434
1,0,451,0,0,588
1,0,452,0,0,523
1,0,453,0,0,485
1,0,454,0,0,460
1,0,455,0,0,386
1,0,456,1,1,562
1,0,457,1,1,467
1,0,458,0,0,516
1,0,459,0,0,469
1,0,460,0,0,484
1,0,461,1,1,498
1,0,462,0,0,497
1,0,463,0,0,585
1,0,464,1,1,518
1,0,465,1,1,452
1,0,466,0,0,615
1,0,467,0,0,462
1,0,468,0,0,414
1,0,469,0,0,442
1,0,470,1,1,550
1,0,471,0,0,523
1,0,472,0,0,615
1,0,473,0,0,560
1,0,474,1,1,398
1,0,475,0,0,558
1,0,476,0,0,772
1,0,477,0,0,547
1,0,478,0,0,507
1,0,479,1,1,468
1,0,480,1,1,473
2,1,1,0,0,468
2,1,2,1,1,457
2,1,3,1,0,444
2,1,4,0,0,662
2,1,5,1,1,451
2,1,6,0,0,613
2,1,7,0,0,681
2,1,8,0,0,615
2,1,9,0,0,621
2,1,10,0,0,736
2,1,11,1,1,617
2,1,12,1,1,620
2,1,13,0,0,500
2,1,14,0,0,554
2,1,15,0,0,561
2,1,16,0,0,575
2,1,17,0,0,542
2,1,18,1,1,637
2,1,19,1,1,662
2,1,20,1,1,510
2,1,21,1,1,533
2,1,22,1,1,496
2,1,23,0,0,688
2,1,24,1,1,567
2,1,25,1,1,582
2,1,26,1,1,604
2,1,27,1,1,552
2,1,28,1,1,507
2,1,29,0,0,626
2,1,30,0,0,647
2,1,31,0,0,559
2,1,32,1,1,595
2,1,33,1,1,537
2,1,34,0,0,627
2,1,35,0,0,590
2,1,36,1,1,582
2,1,37,1,1,575
2,1,38,0,0,561
2,1,39,0,0,609
2,1,40,0,0,614
2,1,41,0,0,613
2,1,42,0,0,599
2,1,43,1,1,556
2,1,44,0,0,565
2,1,45,0,0,526
2,1,46,1,1,652
2,1,47,1,1,579
2,1,48,1,1,619
2,1,49,0,0,581
2,1,50,0,0,556
2,1,51,1,1,546
2,1,52,1,1,804
2,1,53,0,0,546
2,1,54,0,0,684
2,1,55,0,1,492
2,1,56,0,0,591
2,1,57,0,0,568
2,1,58,0,0,473
2,1,59,0,0,527
2,1,60,0,0,573
2,1,61,0,0,492
2,1,62,1,1,559
2,1,63,1,1,418
2,1,64,1,1,545
2,1,65,0,0,542
2,1,66,1,1,585
2,1,67,0,0,489
2,1,68,1,1,385
2,1,69,0,0,653
2,1,70,1,1,621
2,1,71,0,0,418
2,1,72,1,1,572
2,1,73,1,0,433
2,1,74,0,0,596
2,1,75,1,1,638
2,1,76,1,1,447
2,1,77,1,1,543
2,1,78,0,0,550
2,1,79,1,1,524
2,1,80,0,0,640
2,1,81,1,1,495
2,1,82,1,1,426
2,1,83,1,1,545
2,1,84,0,0,484
2,1,85,1,1,558
2,1,86,0,0,628
2,1,87,0,0,627
2,1,88,0,0,590
2,1,89,0,0,694
2,1,90,1,1,414
2,1,91,1,1,620
2,1,92,0,0,816
2,1,93,0,0,645
2,1,94,0,0,601
2,1,95,1,1,385
2,1,96,1,1,478
2,1,97,1,1,953
2,1,98,1,1,693
2,1,99,1,1,496
2,1,100,1,1,639
2,1,101,0,0,404
2,1,102,1,1,411
2,1,103,0,0,546
2,1,104,1,1,642
2,1,105,0,0,475
2,1,106,0,0,586
2,1,107,1,1,468
2,1,108,1,1,568
2,1,109,1,1,597
2,1,110,0,0,532
2,1,111,0,0,765
2,1,112,0,0,750
2,1,113,1,1,511
2,1,114,0,0,571
2,1,115,1,1,571
2,1,116,0,0,643
2,1,117,0,0,493
2,1,118,0,0,537
2,1,119,1,1,605
2,1,120,1,1,632
2,1,121,1,1,508
2,1,122,1,1,560
2,1,123,1,1,370
2,1,124,1,1,414
2,1,125,0,0,384
2,1,126,1,1,365
2,1,127,1,1,358
2,1,128,0,0,359
2,1,129,1,1,648
2,1,130,0,0,457
2,1,131,0,0,559
2,1,132,0,0,429
2,1,133,0,0,597
2,1,134,0,0,480
2,1,135,0,0,397
2,1,136,0,0,481
2,1,137,0,0,500
2,1,138,0,0,490
2,1,139,0,0,553
2,1,140,1,1,576
2,1,141,1,0,464
2,1,142,1,1,505
2,1,143,0,0,662
2,1,144,0,0,539
2,1,145,1,1,426
2,1,146,0,0,588
2,1,147,0,0,396
2,1,148,0,0,512
2,1,149,0,0,555
2,1,150,1,1,366
2,1,151,0,0,503
2,1,152,0,0,515
2,1,153,1,1,501
2,1,154,0,0,538
2,1,155,1,1,529
2,1,156,0,0,499
2,1,157,1,1,412
2,1,158,1,1,883
2,1,159,0,0,473
2,1,160,1,1,438
2,1,161,1,1,467
2,1,162,0,0,491
2,1,163,0,0,758
2,1,164,0,0,547
2,1,165,1,1,463
2,1,166,0,0,609
2,1,167,1,1,454
2,1,168,1,1,714
2,1,169,1,1,497
2,1,170,1,1,415
2,1,171,1,1,471
2,1,172,0,0,535
2,1,173,0,0,520
2,1,174,0,1,522
2,1,175,0,0,493
2,1,176,1,1,507
2,1,177,1,1,513
2,1,178,1,1,506
2,1,179,0,0,495
2,1,180,0,0,545
2,1,181,1,1,370
2,1,182,0,0,397
2,1,183,1,1,520
2,1,184,1,1,376
2,1,185,1,1,450
2,1,186,0,0,383
2,1,187,0,0,409
2,1,188,1,1,653
2,1,189,0,0,452
2,1,190,1,1,381
2,1,191,0,0,492
2,1,192,1,1,374
2,1,193,0,0,458
2,1,194,1,1,484
2,1,195,0,0,450
2,1,196,0,0,463
2,1,197,1,1,463
2,1,198,0,0,637
2,1,199,1,1,380
2,1,200,1,1,579
2,1,201,1,1,475
2,1,202,1,1,404
2,1,203,1,1,586
2,1,204,0,0,386
2,1,205,1,1,552
2,1,206,0,0,499
2,1,207,0,0,401
2,1,208,0,0,479
2,1,209,0,0,584
2,1,210,0,1,448
2,1,211,1,1,562
2,1,212,0,0,673
2,1,213,0,0,550
2,1,214,1,1,496
2,1,215,0,0,353
2,1,216,0,0,647
2,1,217,0,0,549
2,1,218,1,1,611
2,1,219,1,1,469
2,1,220,0,0,596
2,1,221,0,0,540
2,1,222,1,1,609
2,1,223,0,0,587
2,1,224,1,1,562
2,1,225,0,0,557
2,1,226,0,0,615
2,1,227,0,0,627
2,1,228,1,1,576
2,1,229,0,0,649
2,1,230,0,0,444
2,1,231,0,0,541
2,1,232,0,0,502
2,1,233,1,1,532
2,1,234,0,0,519
2,1,235,0,0,500
2,1,236,1,1,433
2,1,237,0,0,526
2,1,238,0,0,603
2,1,239,1,1,524
2,1,240,1,1,529
2,1,241,0,0,622
2,1,242,1,1,438
2,1,243,0,0,434
2,1,244,0,0,437
2,1,245,0,0,483
2,1,246,1,1,362
2,1,247,0,0,433
2,1,248,1,1,602
2,1,249,1,1,562
2,1,250,1,1,439
2,1,251,1,1,504
2,1,252,1,1,416
2,1,253,0,0,512
2,1,254,0,0,430
2,1,255,0,0,461
2,1,256,1,1,500
2,1,257,0,0,493
2,1,258,1,1,478
2,1,259,0,0,674
2,1,260,0,0,614
2,1,261,1,1,462
2,1,262,0,0,531
2,1,263,1,1,585
2,1,264,0,0,525
2,1,265,0,1,452
2,1,266,1,1,445
2,1,267,0,0,451
2,1,268,0,0,444
2,1,269,1,1,457
2,1,270,1,1,493
2,1,271,1,1,478
2,1,272,1,1,484
2,1,273,0,0,371
2,1,274,1,1,485
2,1,275,1,1,513
2,1,276,0,0,707
2,1,277,1,1,474
2,1,278,0,0,569
2,1,279,1,1,591
2,1,280,1,1,492
2,1,281,1,1,523
2,1,282,1,1,561
2,1,283,1,1,511
2,1,284,0,0,544
2,1,285,1,1,495
2,1,286,0,0,711
2,1,287,1,1,584
2,1,288,1,1,554
2,1,289,0,0,531
2,1,290,1,1,457
2,1,291,0,0,551
2,1,292,0,0,520
2,1,293,1,1,630
2,1,294,0,0,526
2,1,295,1,1,630
2,1,296,0,0,757
2,1,297,0,0,507
2,1,298,1,1,624
2,1,299,1,1,516
2,1,300,1,1,466
2,1,301,0,0,389
2,1,302,0,0,417
2,1,303,1,1,455
2,1,304,1,1,432
2,1,305,0,1,482
2,1,306,0,0,427
2,1,307,0,0,462
2,1,308,0,0,472
2,1,309,1,1,524
2,1,310,1,1,499
2,1,311,1,1,482
2,1,312,0,0,491
2,1,313,1,1,461
2,1,314,0,0,491
2,1,315,0,0,513
2,1,316,0,0,505
2,1,317,1,1,450
2,1,318,1,1,454
2,1,319,0,0,328
2,1,320,0,0,529
2,1,321,0,0,397
2,1,322,1,1,345
2,1,323,1,1,657
2,1,324,1,1,559
2,1,325,1,1,587
2,1,326,1,1,468
2,1,327,0,0,706
2,1,328,1,1,607
2,1,329,1,1,435
2,1,330,1,1,504
2,1,331,1,1,524
2,1,332,1,1,447
2,1,333,1,1,474
2,1,334,0,0,483
2,1,335,0,0,514
2,1,336,0,0,558
2,1,337,0,0,379
2,1,338,1,1,438
2,1,339,0,0,607
2,1,340,1,1,891
2,1,341,1,1,520
2,1,342,0,0,1017
2,1,343,1,1,450
2,1,344,1,1,476
2,1,345,0,0,434
2,1,346,1,1,433
2,1,347,1,1,465
2,1,348,0,0,438
2,1,349,1,1,429
2,1,350,1,1,454
2,1,351,1,1,640
2,1,352,1,1,583
2,1,353,1,1,445
2,1,354,0,0,466
2,1,355,0,0,580
2,1,356,1,1,599
2,1,357,1,1,484
2,1,358,0,0,474
2,1,359,1,1,451
2,1,360,1,1,449
2,1,361,0,0,438
2,1,362,1,1,485
2,1,363,1,1,439
2,1,364,1,1,418
2,1,365,0,0,397
2,1,366,0,0,469
2,1,367,1,1,404
2,1,368,0,0,564
2,1,369,0,0,470
2,1,370,0,0,447
2,1,371,1,1,578
2,1,372,1,1,429
2,1,373,0,0,455
2,1,374,0,0,428
2,1,375,1,1,369
2,1,376,1,1,497
2,1,377,1,1,416
2,1,378,1,1,496
2,1,379,1,1,439
2,1,380,0,0,345
2,1,381,0,0,444
2,1,382,0,0,464
2,1,383,0,0,438
2,1,384,1,1,342
2,1,385,1,1,435
2,1,386,1,1,427
2,1,387,0,0,410
2,1,388,1,1,445
2,1,389,1,1,434
2,1,390,1,1,439
2,1,391,0,0,385
2,1,392,0,0,413
2,1,393,1,1,464
2,1,394,1,1,347
2,1,395,0,0,383
2,1,396,0,0,523
2,1,397,0,0,380
2,1,398,0,0,437
2,1,399,0,0,366
2,1,400,1,1,630
2,1,401,1,1,417
2,1,402,0,0,388
2,1,403,1,1,426
2,1,404,1,1,490
2,1,405,0,0,480
2,1,406,0,0,429
2,1,407,0,0,399
2,1,408,1,1,471
2,1,409,0,0,334
2,1,410,1,1,355
2,1,411,1,1,504
2,1,412,1,1,548
2,1,413,1,1,853
2,1,414,0,0,500
2,1,415,1,1,340
2,1,416,1,0,387
2,1,417,1,1,484
2,1,418,0,0,424
2,1,419,1,1,482
2,1,420,0,0,390
2,1,421,1,1,349
2,1,422,0,0,342
2,1,423,0,0,286
2,1,424,1,1,374
2,1,425,1,1,430
2,1,426,0,0,389
2,1,427,0,0,503
2,1,428,0,0,487
2,1,429,1,1,356
2,1,430,1,1,411
2,1,431,1,1,465
2,1,432,1,1,465
2,1,433,0,0,348
2,1,434,0,0,470
2,1,435,0,0,407
2,1,436,0,0,457
2,1,437,0,0,412
2,1,438,1,1,552
2,1,439,0,1,499
2,1,440,0,0,505
2,1,441,1,1,565
2,1,442,1,1,472
2,1,443,1,1,436
2,1,444,0,0,442
2,1,445,1,1,423
2,1,446,1,1,445
2,1,447,0,0,538
2,1,448,1,1,380
2,1,449,1,1,448
2,1,450,1,1,451
2,1,451,1,1,573
2,1,452,1,1,380
2,1,453,1,1,461
2,1,454,0,0,521
2,1,455,1,1,460
2,1,456,1,1,452
2,1,457,1,1,442
2,1,458,1,1,440
2,1,459,1,1,499
2,1,460,1,1,430
2,1,461,1,1,400
2,1,462,1,1,473
2,1,463,0,0,691
2,1,464,0,0,412
2,1,465,1,1,379
2,1,466,0,0,404
2,1,467,1,1,388
2,1,468,0,0,543
2,1,469,1,1,416
2,1,470,0,0,389
2,1,471,1,1,402
2,1,472,1,1,491
2,1,473,1,1,442
2,1,474,1,1,426
2,1,475,0,0,317
2,1,476,1,1,398
2,1,477,0,0,482
2,1,478,1,1,418
2,1,479,1,1,386
2,1,480,0,0,371
3,0,1,0,0,634
3,0,2,0,0,593
3,0,3,1,1,467
3,0,4,0,0,470
3,0,5,1,1,529
3,0,6,0,0,503
3,0,7,0,0,527
3,0,8,0,0,521
3,0,9,1,1,454
3,0,10,1,1,535
3,0,11,1,1,554
3,0,12,1,1,556
3,0,13,0,0,541
3,0,14,1,1,529
3,0,15,1,1,544
3,0,16,1,1,550
3,0,17,1,1,543
3,0,18,0,0,569
3,0,19,0,0,541
3,0,20,1,1,576
3,0,21,0,0,589
3,0,22,1,1,487
3,0,23,1,1,545
3,0,24,0,0,559
3,0,25,1,1,521
3,0,26,1,1,548
3,0,27,0,0,571
3,0,28,0,0,531
3,0,29,1,1,559
3,0,30,1,1,531
3,0,31,1,1,620
3,0,32,1,1,492
3,0,33,1,1,476
3,0,34,1,1,606
3,0,35,0,0,477
3,0,36,0,0,528
3,0,37,1,1,502
3,0,38,0,0,485
3,0,39,0,0,582
3,0,40,0,0,572
3,0,41,0,0,757
3,0,42,1,1,590
3,0,43,0,0,575
3,0,44,0,0,560
3,0,45,0,0,594
3,0,46,1,1,524
3,0,47,0,0,505
3,0,48,0,0,486
3,0,49,1,1,619
3,0,50,0,0,528
3,0,51,0,0,517
3,0,52,1,1,616
3,0,53,1,1,520
3,0,54,1,1,673
3,0,55,0,0,596
3,0,56,1,1,501
3,0,57,0,0,593
3,0,58,1,1,532
3,0,59,1,1,620
3,0,60,0,0,502
3,0,61,0,0,509
3,0,62,0,0,490
3,0,63,1,1,590
3,0,64,0,0,427
3,0,65,0,0,478
3,0,66,0,0,435
3,0,67,0,0,449
3,0,68,0,0,473
3,0,69,0,0,434
3,0,70,0,0,437
3,0,71,0,0,405
3,0,72,0,0,485
3,0,73,0,0,491
3,0,74,0,0,420
3,0,75,1,1,505
3,0,76,0,0,536
3,0,77,0,0,420
3,0,78,1,1,504
3,0,79,0,0,489
3,0,80,1,1,385
3,0,81,1,1,458
3,0,82,1,1,469
3,0,83,0,0,575
3,0,84,0,0,432
3,0,85,1,1,457
3,0,86,0,0,406
3,0,87,0,0,541
3,0,88,0,0,447
3,0,89,0,0,462
3,0,90,0,0,510
3,0,91,0,0,462
3,0,92,0,0,537
3,0,93,1,1,466
3,0,94,1,1,444
3,0,95,1,1,596
3,0,96,0,0,502
3,0,97,0,0,488
3,0,98,1,1,684
3,0,99,1,1,412
3,0,100,1,1,483
3,0,101,1,1,486
3,0,102,1,1,562
3,0,103,0,0,513
3,0,104,0,0,535
3,0,105,1,1,525
3,0,106,0,0,582
3,0,107,0,0,449
3,0,108,0,0,443
3,0,109,1,1,499
3,0,110,0,0,495
3,0,111,0,0,473
3,0,112,1,1,470
3,0,113,0,0,531
3,0,114,0,0,583
3,0,115,0,0,492
3,0,116,0,0,488
3,0,117,1,1,503
3,0,118,1,1,706
3,0,119,0,0,509
3,0,120,0,0,451
3,0,121,1,1,494
3,0,122,1,1,500
3,0,123,1,1,483
3,0,124,1,1,478
3,0,125,0,0,506
3,0,126,0,0,642
3,0,127,1,1,556
3,0,128,1,1,500
3,0,129,0,0,600
3,0,130,1,1,517
3,0,131,1,1,500
3,0,132,0,0,705
3,0,133,1,1,453
3,0,134,1,1,464
3,0,135,1,1,483
3,0,136,1,1,493
3,0,137,0,0,542
3,0,138,1,1,567
3,0,139,1,1,543
3,0,140,0,0,424
3,0,141,1,1,490
3,0,142,1,1,518
3,0,143,1,1,492
3,0,144,1,1,531
3,0,145,1,1,498
3,0,146,0,0,550
3,0,147,0,0,423
3,0,148,1,1,572
3,0,149,0,0,665
3,0,150,1,1,513
3,0,151,1,1,488
3,0,152,0,0,493
3,0,153,1,1,689
3,0,154,1,1,543
3,0,155,1,1,582
3,0,156,1,1,610
3,0,157,0,0,481
3,0,158,1,1,564
3,0,159,0,0,504
3,0,160,1,1,538
3,0,161,1,1,584
3,0,162,0,0,449
3,0,163,0,0,588
3,0,164,1,1,511
3,0,165,1,1,561
3,0,166,0,0,506
3,0,167,1,1,554
3,0,168,1,1,508
3,0,169,0,0,500
3,0,170,1,1,486
3,0,171,1,1,496
3,0,172,0,0,423
3,0,173,0,0,481
3,0,174,0,0,813
3,0,175,1,1,501
3,0,176,1,1,560
3,0,177,0,0,395
3,0,178,1,1,536
3,0,179,1,1,508
3,0,180,0,0,432
3,0,181,0,0,403
3,0,182,0,0,506
3,0,183,0,0,470
3,0,184,0,0,434
3,0,185,0,0,473
3,0,186,1,1,530
3,0,187,1,1,479
3,0,188,0,0,531
3,0,189,0,0,479
3,0,190,0,0,466
3,0,191,0,0,457
3,0,192,0,0,377
3,0,193,0,0,478
3,0,194,0,0,450
3,0,195,0,0,504
3,0,196,0,0,453
3,0,197,1,1,569
3,0,198,1,1,444
3,0,199,0,0,423
3,0,200,1,1,385
3,0,201,0,0,506
3,0,202,0,0,389
3,0,203,1,1,799
3,0,204,0,0,506
3,0,205,0,0,473
3,0,206,1,1,507
3,0,207,1,1,471
3,0,208,1,1,503
3,0,209,1,1,425
3,0,210,0,0,596
3,0,211,1,1,490
3,0,212,0,0,579
3,0,213,0,0,474
3,0,214,1,1,620
3,0,215,0,0,537
3,0,216,0,0,512
3,0,217,0,0,427
3,0,218,1,1,425
3,0,219,0,0,433
3,0,220,1,1,537
3,0,221,0,0,507
3,0,222,1,1,517
3,0,223,0,0,410
3,0,224,1,1,626
3,0,225,1,1,489
3,0,226,1,1,502
3,0,227,0,0,563
3,0,228,0,0,422
3,0,229,0,0,481
3,0,230,1,1,440
3,0,231,0,0,396
3,0,232,0,0,503
3,0,233,0,0,458
3,0,234,0,0,393
3,0,235,0,0,434
3,0,236,1,1,585
3,0,237,0,0,623
3,0,238,1,1,493
3,0,239,1,1,484
3,0,240,1,1,502
3,0,241,1,1,392
3,0,242,1,1,448
3,0,243,1,1,439
3,0,244,1,1,450
3,0,245,1,1,501
3,0,246,0,0,409
3,0,247,0,0,387
3,0,248,1,1,451
3,0,249,1,1,455
3,0,250,1,1,511
3,0,251,0,0,369
3,0,252,0,0,491
3,0,253,0,0,478
3,0,254,1,1,389
3,0,255,1,1,360
3,0,256,0,0,457
3,0,257,1,1,503
3,0,258,0,0,432
3,0,259,1,1,689
3,0,260,1,1,502
3,0,261,0,0,531
3,0,262,1,1,522
3,0,263,0,0,452
3,0,264,1,1,444
3,0,265,1,1,581
3,0,266,1,1,401
3,0,267,0,0,411
3,0,268,0,0,522
3,0,269,0,0,442
3,0,270,0,0,497
3,0,271,1,1,447
3,0,272,1,1,470
3,0,273,0,0,414
3,0,274,1,1,517
3,0,275,0,0,573
3,0,276,1,1,461
3,0,277,1,1,495
3,0,278,1,1,522
3,0,279,1,1,487
3,0,280,1,1,478
3,0,281,1,1,377
3,0,282,1,1,480
3,0,283,0,0,436
3,0,284,1,1,494
3,0,285,1,1,391
3,0,286,0,0,578
3,0,287,1,1,719
3,0,288,1,1,461
3,0,289,1,1,475
3,0,290,0,0,406
3,0,291,1,1,470
3,0,292,0,0,422
3,0,293,0,0,446
3,0,294,1,1,482
3,0,295,0,0,420
3,0,296,0,0,534
3,0,297,0,0,627
3,0,298,0,0,522
3,0,299,1,1,470
3,0,300,0,0,576
3,0,301,0,0,491
3,0,302,1,1,442
3,0,303,0,0,426
3,0,304,0,0,507
3,0,305,1,1,394
3,0,306,1,1,458
3,0,307,1,1,426
3,0,308,1,1,511
3,0,309,0,0,515
3,0,310,0,0,497
3,0,311,0,0,522
3,0,312,0,0,453
3,0,313,1,1,369
3,0,314,1,1,474
3,0,315,0,0,474
3,0,316,0,0,575
3,0,317,1,1,471
3,0,318,1,1,529
3,0,319,1,1,411
3,0,320,1,1,482
3,0,321,0,0,341
3,0,322,1,1,449
3,0,323,1,1,458
3,0,324,0,0,372
3,0,325,1,1,419
3,0,326,1,1,477
3,0,327,1,1,469
3,0,328,1,1,449
3,0,329,1,1,466
3,0,330,0,0,449
3,0,331,0,0,437
3,0,332,0,0,456
3,0,333,0,0,450
3,0,334,0,0,446
3,0,335,1,1,482
3,0,336,0,0,410
3,0,337,1,1,451
3,0,338,1,0,463
3,0,339,0,0,519
3,0,340,0,0,712
3,0,341,1,1,531
3,0,342,0,0,871
3,0,343,0,0,549
3,0,344,0,0,425
3,0,345,0,0,496
3,0,346,0,0,460
3,0,347,0,0,363
3,0,348,1,1,450
3,0,349,1,1,421
3,0,350,1,1,604
3,0,351,1,1,530
3,0,352,0,0,424
3,0,353,0,0,529
3,0,354,1,1,437
3,0,355,0,0,530
3,0,356,0,0,443
3,0,357,0,0,482
3,0,358,0,0,395
3,0,359,0,0,416
3,0,360,0,0,489
3,0,361,1,1,428
3,0,362,1,1,474
3,0,363,0,0,429
3,0,364,0,0,398
3,0,365,1,1,571
3,0,366,1,1,510
3,0,367,1,1,426
3,0,368,0,0,419
3,0,369,1,1,619
3,0,370,1,1,494
3,0,371,0,0,499
3,0,372,1,1,671
3,0,373,0,0,466
3,0,374,1,1,392
3,0,375,1,1,477
3,0,376,0,0,504
3,0,377,0,0,660
3,0,378,0,0,489
3,0,379,0,0,411
3,0,380,0,0,541
3,0,381,0,0,389
3,0,382,0,0,467
3,0,383,0,0,395
3,0,384,1,1,446
3,0,385,0,0,417
3,0,386,1,1,434
3,0,387,0,0,544
3,0,388,1,1,435
3,0,389,1,1,393
3,0,390,0,0,446
3,0,391,0,0,445
3,0,392,0,0,420
3,0,393,0,0,561
3,0,394,0,0,498
3,0,395,0,0,565
3,0,396,1,1,532
3,0,397,1,1,385
3,0,398,0,0,532
3,0,399,1,1,479
3,0,400,1,1,486
3,0,401,1,1,481
3,0,402,1,1,513
3,0,403,0,0,502
3,0,404,1,1,468
3,0,405,1,1,548
3,0,406,1,1,508
3,0,407,0,0,465
3,0,408,1,1,473
3,0,409,1,1,460
3,0,410,0,0,373
3,0,411,0,0,551
3,0,412,1,1,443
3,0,413,1,1,577
3,0,414,1,1,444
3,0,415,1,1,456
3,0,416,0,0,475
3,0,417,0,0,425
3,0,418,0,0,391
3,0,419,1,1,654
3,0,420,0,0,647
3,0,421,0,0,500
3,0,422,0,0,428
3,0,423,0,0,430
3,0,424,0,0,485
3,0,425,1,1,416
3,0,426,0,0,458
3,0,427,1,1,511
3,0,428,1,1,458
3,0,429,1,1,414
3,0,430,1,1,479
3,0,431,0,0,457
3,0,432,1,1,385
3,0,433,0,0,395
3,0,434,0,0,487
3,0,435,1,1,532
3,0,436,0,0,420
3,0,437,1,0,298
3,0,438,0,0,765
3,0,439,1,1,389
3,0,440,1,1,577
3,0,441,1,1,459
3,0,442,0,0,496
3,0,443,1,1,442
3,0,444,0,0,480
3,0,445,0,0,502
3,0,446,0,0,467
3,0,447,0,0,455
3,0,448,1,1,477
3,0,449,0,0,462
3,0,450,1,1,394
3,0,451,0,0,487
3,0,452,1,1,396
3,0,453,1,1,486
3,0,454,1,1,478
3,0,455,1,1,398
3,0,456,1,1,424
3,0,457,1,1,430
3,0,458,0,0,482
3,0,459,0,0,407
3,0,460,0,0,540
3,0,461,1,1,454
3,0,462,0,0,474
3,0,463,1,1,430
3,0,464,0,0,507
3,0,465,0,0,531
3,0,466,1,1,405
3,0,467,1,1,625
3,0,468,0,0,479
3,0,469,0,0,500
3,0,470,1,1,446
3,0,471,1,1,493
3,0,472,1,1,472
3,0,473,0,0,441
3,0,474,0,0,417
3,0,475,0,0,516
3,0,476,1,1,423
3,0,477,0,0,659
3,0,478,1,1,360
3,0,479,1,1,467
3,0,480,0,0,451
4,0,1,0,0,562
4,0,2,1,1,514
4,0,3,0,0,477
4,0,4,0,0,530
4,0,5,0,0,479
4,0,6,1,1,518
4,0,7,0,0,514
4,0,8,0,0,477
4,0,9,1,1,391
4,0,10,0,0,485
4,0,11,0,0,672
4,0,12,0,0,484
4,0,13,0,0,466
4,0,14,1,1,387
4,0,15,0,0,403
4,0,16,0,0,416
4,0,17,1,1,438
4,0,18,0,0,407
4,0,19,1,1,446
4,0,20,1,1,454
4,0,21,1,1,486
4,0,22,1,1,467
4,0,23,0,0,449
4,0,24,0,0,527
4,0,25,0,0,428
4,0,26,0,0,424
4,0,27,1,1,461
4,0,28,1,1,455
4,0,29,1,1,438
4,0,30,0,0,419
4,0,31,1,1,648
4,0,32,1,1,460
4,0,33,1,1,510
4,0,34,1,1,480
4,0,35,0,0,465
4,0,36,0,0,568
4,0,37,0,0,445
4,0,38,0,0,439
4,0,39,1,1,516
4,0,40,1,1,532
4,0,41,1,1,500
4,0,42,1,1,513
4,0,43,1,1,485
4,0,44,1,1,519
4,0,45,0,0,446
4,0,46,1,1,489
4,0,47,0,0,442
4,0,48,1,1,453
4,0,49,0,0,483
4,0,50,1,1,494
4,0,51,0,0,453
4,0,52,1,1,481
4,0,53,0,0,488
4,0,54,0,0,433
4,0,55,0,0,432
4,0,56,1,1,391
4,0,57,1,1,486
4,0,58,1,1,518
4,0,59,0,0,506
4,0,60,1,1,474
4,0,61,1,1,460
4,0,62,0,0,426
4,0,63,0,0,484
4,0,64,1,1,404
4,0,65,0,0,440
4,0,66,1,0,428
4,0,67,0,0,488
4,0,68,0,0,487
4,0,69,1,1,409
4,0,70,0,0,492
4,0,71,1,1,463
4,0,72,1,1,523
4,0,73,1,1,577
4,0,74,0,0,678
4,0,75,1,1,453
4,0,76,0,0,415
4,0,77,1,1,490
4,0,78,1,1,506
4,0,79,1,1,522
4,0,80,0,0,489
4,0,81,0,0,417
4,0,82,0,0,449
4,0,83,1,1,486
4,0,84,0,0,417
4,0,85,1,1,421
4,0,86,0,0,521
4,0,87,0,0,436
4,0,88,1,1,418
4,0,89,1,1,542
4,0,90,0,0,522
4,0,91,0,0,439
4,0,92,0,0,449
4,0,93,0,0,438
4,0,94,1,1,400
4,0,95,0,0,488
4,0,96,0,0,437
4,0,97,1,1,489
4,0,98,1,1,543
4,0,99,1,1,534
4,0,100,0,0,427
4,0,101,1,1,481
4,0,102,0,0,421
4,0,103,1,1,606
4,0,104,0,0,563
4,0,105,1,1,440
4,0,106,1,1,476
4,0,107,0,0,455
4,0,108,1,1,569
4,0,109,0,0,440
4,0,110,0,0,500
4,0,111,1,1,452
4,0,112,0,0,515
4,0,113,1,1,591
4,0,114,1,1,574
4,0,115,0,0,468
4,0,116,1,1,507
4,0,117,0,1,476
4,0,118,0,0,455
4,0,119,1,1,716
4,0,120,1,1,592
4,0,121,0,0,472
4,0,122,1,1,407
4,0,123,1,1,499
4,0,124,0,0,429
4,0,125,1,1,508
4,0,126,0,0,413
4,0,127,0,0,597
4,0,128,0,0,463
4,0,129,1,1,441
4,0,130,0,0,410
4,0,131,1,1,514
4,0,132,0,0,594
4,0,133,0,0,416
4,0,134,1,1,527
4,0,135,1,1,503
4,0,136,0,0,419
4,0,137,1,1,548
4,0,138,0,0,493
4,0,139,1,1,468
4,0,140,0,0,426
4,0,141,0,0,445
4,0,142,1,1,531
4,0,143,0,0,447
4,0,144,0,0,481
4,0,145,0,0,478
4,0,146,0,0,456
4,0,147,0,0,484
4,0,148,0,0,638
4,0,149,1,1,478
4,0,150,1,1,461
4,0,151,0,0,473
4,0,152,1,1,628
4,0,153,1,1,509
4,0,154,0,0,427
4,0,155,0,0,521
4,0,156,0,0,444
4,0,157,0,0,428
4,0,158,0,0,428
4,0,159,0,0,445
4,0,160,0,0,455
4,0,161,1,1,447
4,0,162,0,0,460
4,0,163,0,0,429
4,0,164,0,0,462
4,0,165,0,0,445
4,0,166,0,0,391
4,0,167,1,1,460
4,0,168,1,1,514
4,0,169,1,1,531
4,0,170,0,0,447
4,0,171,0,0,480
4,0,172,1,1,509
4,0,173,1,1,509
4,0,174,0,0,606
4,0,175,1,1,486
4,0,176,1,1,527
4,0,177,1,1,505
4,0,178,1,1,541
4,0,179,0,0,771
4,0,180,0,0,451
4,0,181,1,1,497
4,0,182,1,1,504
4,0,183,0,0,432
4,0,184,0,0,446
4,0,185,1,1,513
4,0,186,1,1,551
4,0,187,0,0,489
4,0,188,0,0,455
4,0,189,0,0,430
4,0,190,1,1,480
4,0,191,1,1,539
4,0,192,0,0,467
4,0,193,0,0,459
4,0,194,0,0,509
4,0,195,1,1,414
4,0,196,0,0,443
4,0,197,1,1,454
4,0,198,1,1,516
4,0,199,0,0,523
4,0,200,1,1,495
4,0,201,0,0,435
4,0,202,1,1,463
4,0,203,0,0,445
4,0,204,0,1,480
4,0,205,0,0,477
4,0,206,0,0,436
4,0,207,0,0,438
4,0,208,0,0,466
4,0,209,1,1,465
4,0,210,0,0,485
4,0,211,1,1,559
4,0,212,0,0,482
4,0,213,0,0,467
4,0,214,1,1,540
4,0,215,0,0,434
4,0,216,1,1,572
4,0,217,1,1,602
4,0,218,0,0,501
4,0,219,0,0,629
4,0,220,1,1,494
4,0,221,0,0,457
4,0,222,1,1,599
4,0,223,1,1,570
4,0,224,0,0,459
4,0,225,0,0,427
4,0,226,1,1,538
4,0,227,1,1,643
4,0,228,0,0,432
4,0,229,1,1,488
4,0,230,0,0,493
4,0,231,0,0,545
4,0,232,1,1,494
4,0,233,0,0,428
4,0,234,1,1,509
4,0,235,0,0,401
4,0,236,0,0,462
4,0,237,1,1,467
4,0,238,1,1,486
4,0,239,1,1,522
4,0,240,1,1,491
4,0,241,0,0,439
4,0,242,0,0,458
4,0,243,0,0,456
4,0,244,0,0,451
4,0,245,1,1,542
4,0,246,0,0,465
4,0,247,0,0,409
4,0,248,0,0,454
4,0,249,1,1,420
4,0,250,1,1,652
4,0,251,0,0,751
4,0,252,1,1,520
4,0,253,1,1,594
4,0,254,0,0,452
4,0,255,0,0,455
4,0,256,1,1,506
4,0,257,1,1,499
4,0,258,1,1,484
4,0,259,0,0,422
4,0,260,0,0,474
4,0,261,1,1,426
4,0,262,0,0,435
4,0,263,0,0,438
4,0,264,1,1,423
4,0,265,0,0,420
4,0,266,0,0,491
4,0,267,1,1,419
4,0,268,1,1,476
4,0,269,1,1,449
4,0,270,1,1,517
4,0,271,0,0,424
4,0,272,0,0,457
4,0,273,0,0,418
4,0,274,0,0,442
4,0,275,0,0,447
4,0,276,0,0,420
4,0,277,0,0,429
4,0,278,1,1,521
4,0,279,0,0,436
4,0,280,1,1,499
4,0,281,1,1,501
4,0,282,0,0,431
4,0,283,0,0,398
4,0,284,0,0,486
4,0,285,0,0,415
4,0,286,1,1,516
4,0,287,1,1,519
4,0,288,0,0,422
4,0,289,0,0,434
4,0,290,0,0,420
4,0,291,0,0,396
4,0,292,0,0,407
4,0,293,1,1,411
4,0,294,1,1,536
4,0,295,1,1,455
4,0,296,1,1,485
4,0,297,1,1,463
4,0,298,1,1,465
4,0,299,1,1,469
4,0,300,1,1,494
4,0,301,1,1,452
4,0,302,0,0,416
4,0,303,0,0,426
4,0,304,0,0,443
4,0,305,0,0,418
4,0,306,0,0,433
4,0,307,1,1,423
4,0,308,0,0,453
4,0,309,0,0,387
4,0,310,0,0,444
4,0,311,0,0,416
4,0,312,1,1,382
4,0,313,1,1,537
4,0,314,0,0,419
4,0,315,0,0,405
4,0,316,1,1,570
4,0,317,0,0,449
4,0,318,0,0,412
4,0,319,1,1,449
4,0,320,1,1,392
4,0,321,0,0,403
4,0,322,1,1,414
4,0,323,0,0,490
4,0,324,0,0,437
4,0,325,1,1,504
4,0,326,0,0,408
4,0,327,1,1,401
4,0,328,1,1,449
4,0,329,0,0,409
4,0,330,1,1,392
4,0,331,0,0,435
4,0,332,0,0,439
4,0,333,1,1,387
4,0,334,1,1,502
4,0,335,1,1,405
4,0,336,0,0,435
4,0,337,0,1,440
4,0,338,0,0,404
4,0,339,0,0,448
4,0,340,0,0,423
4,0,341,0,0,468
4,0,342,1,1,402
4,0,343,1,1,533
4,0,344,0,0,465
4,0,345,0,0,426
4,0,346,0,0,400
4,0,347,0,0,422
4,0,348,1,1,530
4,0,349,1,1,559
4,0,350,0,0,452
4,0,351,1,1,480
4,0,352,0,0,495
4,0,353,1,1,481
4,0,354,1,1,537
4,0,355,1,1,512
4,0,356,0,0,445
4,0,357,0,0,433
4,0,358,0,0,479
4,0,359,0,0,479
4,0,360,0,0,453
4,0,361,1,1,496
4,0,362,1,1,427
4,0,363,1,1,541
4,0,364,1,1,427
4,0,365,1,1,465
4,0,366,0,0,591
4,0,367,1,1,493
4,0,368,1,1,509
4,0,369,1,1,464
4,0,370,1,1,497
4,0,371,1,1,660
4,0,372,1,1,426
4,0,373,1,1,465
4,0,374,1,1,446
4,0,375,0,0,443
4,0,376,1,1,527
4,0,377,0,0,410
4,0,378,0,0,458
4,0,379,1,1,479
4,0,380,0,0,439
4,0,381,0,0,518
4,0,382,0,0,436
4,0,383,1,1,440
4,0,384,1,1,518
4,0,385,1,1,460
4,0,386,0,0,465
4,0,387,1,1,482
4,0,388,1,1,494
4,0,389,0,0,394
4,0,390,1,1,471
4,0,391,1,1,472
4,0,392,0,0,446
4,0,393,1,1,603
4,0,394,0,0,427
4,0,395,1,1,475
4,0,396,0,0,597
4,0,397,1,1,409
4,0,398,0,0,448
4,0,399,0,0,542
4,0,400,1,1,446
4,0,401,1,1,453
4,0,402,1,1,390
4,0,403,1,1,466
4,0,404,1,1,436
4,0,405,0,0,585
4,0,406,1,1,515
4,0,407,1,1,466
4,0,408,0,0,444
4,0,409,0,0,496
4,0,410,0,0,446
4,0,411,1,1,520
4,0,412,0,0,443
4,0,413,0,0,399
4,0,414,1,1,414
4,0,415,0,0,438
4,0,416,1,1,468
4,0,417,0,0,433
4,0,418,1,1,445
4,0,419,0,0,536
4,0,420,1,1,434
4,0,421,1,1,448
4,0,422,1,1,436
4,0,423,0,0,426
4,0,424,0,0,415
4,0,425,1,1,456
4,0,426,1,1,429
4,0,427,0,0,457
4,0,428,0,0,439
4,0,429,0,0,448
4,0,430,1,1,431
4,0,431,1,1,433
4,0,432,0,0,427
4,0,433,1,1,412
4,0,434,0,0,448
4,0,435,0,0,603
4,0,436,0,0,615
4,0,437,0,0,430
4,0,438,0,0,385
4,0,439,1,1,380
4,0,440,1,0,389
4,0,441,0,0,472
4,0,442,0,0,435
4,0,443,1,1,407
4,0,444,0,0,418
4,0,445,0,0,456
4,0,446,0,0,452
4,0,447,1,1,452
4,0,448,0,0,440
4,0,449,1,1,438
4,0,450,0,0,420
4,0,451,0,0,496
4,0,452,1,1,426
4,0,453,0,0,443
4,0,454,1,1,431
4,0,455,1,1,390
4,0,456,1,1,456
4,0,457,1,1,496
4,0,458,1,1,420
4,0,459,1,1,415
4,0,460,1,1,430
4,0,461,1,1,463
4,0,462,1,1,457
4,0,463,0,0,411
4,0,464,0,0,431
4,0,465,0,0,418
4,0,466,1,0,407
4,0,467,1,1,420
4,0,468,0,0,548
4,0,469,0,0,418
4,0,470,0,0,445
4,0,471,1,1,426
4,0,472,0,0,417
4,0,473,1,1,500
4,0,474,0,0,452
4,0,475,1,1,514
4,0,476,1,1,480
4,0,477,1,1,411
4,0,478,0,0,418
4,0,479,1,1,433
4,0,480,1,1,511
5,0,1,1,1,928
5,0,2,1,1,621
5,0,3,1,1,468
5,0,4,1,1,582
5,0,5,0,0,502
5,0,6,1,1,575
5,0,7,0,0,810
5,0,8,1,1,658
5,0,9,1,1,712
5,0,10,0,0,622
5,0,11,1,1,657
5,0,12,0,0,532
5,0,13,0,0,583
5,0,14,1,1,615
5,0,15,0,0,644
5,0,16,1,1,616
5,0,17,0,0,1189
5,0,18,1,1,615
5,0,19,0,0,610
5,0,20,0,0,565
5,0,21,1,1,596
5,0,22,1,1,604
5,0,23,1,1,482
5,0,24,1,1,700
5,0,25,0,0,585
5,0,26,0,0,638
5,0,27,1,1,533
5,0,28,1,1,652
5,0,29,1,1,630
5,0,30,0,0,473
5,0,31,0,0,581
5,0,32,0,0,611
5,0,33,0,0,628
5,0,34,0,0,673
5,0,35,1,1,696
5,0,36,0,0,614
5,0,37,0,0,624
5,0,38,0,0,528
5,0,39,0,0,513
5,0,40,1,1,572
5,0,41,0,0,608
5,0,42,1,1,663
5,0,43,0,0,695
5,0,44,1,1,618
5,0,45,1,1,655
5,0,46,0,0,628
5,0,47,1,1,623
5,0,48,1,1,718
5,0,49,0,0,638
5,0,50,1,1,408
5,0,51,0,0,517
5,0,52,1,1,633
5,0,53,0,0,648
5,0,54,0,1,472
5,0,55,1,1,718
5,0,56,1,0,490
5,0,57,1,1,499
5,0,58,0,0,497
5,0,59,0,0,612
5,0,60,0,0,442
5,0,61,0,0,640
5,0,62,1,1,675
5,0,63,1,1,612
5,0,64,1,1,593
5,0,65,1,1,522
5,0,66,0,0,462
5,0,67,0,0,713
5,0,68,0,0,441
5,0,69,1,1,384
5,0,70,1,1,532
5,0,71,1,1,550
5,0,72,0,0,515
5,0,73,1,1,522
5,0,74,1,1,636
5,0,75,1,1,558
5,0,76,0,0,661
5,0,77,1,1,574
5,0,78,0,0,485
5,0,79,0,1,502
5,0,80,0,0,641
5,0,81,1,1,560
5,0,82,1,0,438
5,0,83,0,0,633
5,0,84,1,1,603
5,0,85,0,0,663
5,0,86,1,1,598
5,0,87,1,1,499
5,0,88,0,0,597
5,0,89,0,0,608
5,0,90,1,1,568
5,0,91,1,1,617
5,0,92,0,0,647
5,0,93,0,0,707
5,0,94,1,1,597
5,0,95,1,1,433
5,0,96,0,0,619
5,0,97,0,1,680
5,0,98,0,0,607
5,0,99,0,0,578
5,0,100,0,0,638
5,0,101,1,1,701
5,0,102,1,1,617
5,0,103,0,0,557
5,0,104,1,1,693
5,0,105,1,1,598
5,0,106,1,1,624
5,0,107,1,1,612
5,0,108,0,0,521
5,0,109,0,0,623
5,0,110,0,0,624
5,0,111,1,1,553
5,0,112,1,1,489
5,0,113,1,1,395
5,0,114,0,0,643
5,0,115,1,1,621
5,0,116,0,0,518
5,0,117,0,0,529
5,0,118,1,1,658
5,0,119,1,1,616
5,0,120,0,0,530
5,0,121,0,0,521
5,0,122,0,0,562
5,0,123,0,0,550
5,0,124,1,1,623
5,0,125,0,1,615
5,0,126,0,0,549
5,0,127,1,1,622
5,0,128,0,0,649
5,0,129,0,0,601
5,0,130,0,0,597
5,0,131,0,0,817
5,0,132,1,1,604
5,0,133,0,0,596
5,0,134,0,0,677
5,0,135,1,1,597
5,0,136,1,1,875
5,0,137,1,1,491
5,0,138,1,1,635
5,0,139,1,1,584
5,0,140,1,1,606
5,0,141,0,0,661
5,0,142,1,1,433
5,0,143,0,0,689
5,0,144,0,0,598
5,0,145,1,1,687
5,0,146,1,1,574
5,0,147,0,0,723
5,0,148,1,1,556
5,0,149,1,1,641
5,0,150,0,0,631
5,0,151,0,0,1357
5,0,152,0,0,546
5,0,153,1,1,646
5,0,154,0,0,764
5,0,155,0,0,548
5,0,156,0,0,592
5,0,157,1,1,551
5,0,158,1,1,1025
5,0,159,1,1,522
5,0,160,0,0,731
5,0,161,1,1,577
5,0,162,0,0,696
5,0,163,1,1,547
5,0,164,1,1,708
5,0,165,1,1,534
5,0,166,0,0,587
5,0,167,1,1,589
5,0,168,1,1,757
5,0,169,1,1,796
5,0,170,1,1,673
5,0,171,1,1,424
5,0,172,0,0,680
5,0,173,0,0,591
5,0,174,0,0,637
5,0,175,1,1,617
5,0,176,0,0,599
5,0,177,1,1,519
5,0,178,1,1,540
5,0,179,0,0,658
5,0,180,0,0,641
5,0,181,0,0,511
5,0,182,0,0,522
5,0,183,0,0,571
5,0,184,1,1,506
5,0,185,0,0,519
5,0,186,1,1,486
5,0,187,1,1,660
5,0,188,0,0,564
5,0,189,0,0,613
5,0,190,1,1,587
5,0,191,0,0,611
5,0,192,0,0,586
5,0,193,0,0,630
5,0,194,1,1,486
5,0,195,0,0,580
5,0,196,1,1,618
5,0,197,0,0,523
5,0,198,0,0,499
5,0,199,1,1,414
5,0,200,1,1,457
5,0,201,0,0,570
5,0,202,0,0,561
5,0,203,1,1,508
5,0,204,1,1,529
5,0,205,1,1,495
5,0,206,1,1,526
5,0,207,0,0,498
5,0,208,0,0,619
5,0,209,1,1,489
5,0,210,0,0,753
5,0,211,1,1,605
5,0,212,1,1,602
5,0,213,0,0,623
5,0,214,1,1,500
5,0,215,0,0,654
5,0,216,0,0,580
5,0,217,1,1,616
5,0,218,1,1,810
5,0,219,1,1,563
5,0,220,0,0,602
5,0,221,1,1,660
5,0,222,1,1,580
5,0,223,0,0,793
5,0,224,0,0,677
5,0,225,0,0,689
5,0,226,0,0,589
5,0,227,1,1,621
5,0,228,1,1,812
5,0,229,1,1,635
5,0,230,0,0,861
5,0,231,0,0,576
5,0,232,1,1,585
5,0,233,1,1,721
5,0,234,0,0,706
5,0,235,1,1,756
5,0,236,1,1,936
5,0,237,1,1,531
5,0,238,1,1,631
5,0,239,0,0,769
5,0,240,1,1,582
5,0,241,1,1,589
5,0,242,1,1,462
5,0,243,0,0,682
5,0,244,0,0,645
5,0,245,0,0,564
5,0,246,0,0,492
5,0,247,1,1,535
5,0,248,1,1,662
5,0,249,0,0,504
5,0,250,1,1,504
5,0,251,1,1,487
5,0,252,1,1,433
5,0,253,0,0,596
5,0,254,0,0,627
5,0,255,1,1,579
5,0,256,1,1,451
5,0,257,1,1,427
5,0,258,1,1,495
5,0,259,1,1,575
5,0,260,1,1,401
5,0,261,1,1,445
5,0,262,0,0,661
5,0,263,0,0,496
5,0,264,1,1,674
5,0,265,0,0,610
5,0,266,1,1,529
5,0,267,0,0,715
5,0,268,1,1,522
5,0,269,1,1,495
5,0,270,0,0,605
5,0,271,0,0,696
5,0,272,0,0,576
5,0,273,1,1,500
5,0,274,0,0,563
5,0,275,1,1,514
5,0,276,0,0,1023
5,0,277,1,1,606
5,0,278,1,1,585
5,0,279,1,1,471
5,0,280,0,0,603
5,0,281,1,1,474
5,0,282,0,0,555
5,0,283,0,0,583
5,0,284,0,0,710
5,0,285,0,0,584
5,0,286,0,0,529
5,0,287,1,1,410
5,0,288,0,0,520
5,0,289,1,1,414
5,0,290,0,0,555
5,0,291,0,0,489
5,0,292,0,0,572
5,0,293,1,1,545
5,0,294,1,1,479
5,0,295,1,1,405
5,0,296,0,0,669
5,0,297,1,1,468
5,0,298,1,1,498
5,0,299,0,0,760
5,0,300,1,1,689
5,0,301,0,0,583
5,0,302,1,1,561
5,0,303,0,0,469
5,0,304,0,0,650
5,0,305,1,1,434
5,0,306,0,0,566
5,0,307,0,0,525
5,0,308,0,0,695
5,0,309,0,0,550
5,0,310,1,1,527
5,0,311,1,1,508
5,0,312,0,0,543
5,0,313,0,0,564
5,0,314,1,1,570
5,0,315,0,0,547
5,0,316,0,0,557
5,0,317,1,1,563
5,0,318,0,0,530
5,0,319,0,0,619
5,0,320,1,1,597
5,0,321,1,1,728
5,0,322,1,1,570
5,0,323,0,0,594
5,0,324,1,1,680
5,0,325,0,0,629
5,0,326,0,0,503
5,0,327,0,0,506
5,0,328,0,0,563
5,0,329,0,0,863
5,0,330,0,0,634
5,0,331,0,0,629
5,0,332,0,0,539
5,0,333,1,1,585
5,0,334,1,1,680
5,0,335,1,1,407
5,0,336,0,0,806
5,0,337,0,0,606
5,0,338,1,1,438
5,0,339,0,0,600
5,0,340,0,0,567
5,0,341,1,1,545
5,0,342,1,1,474
5,0,343,0,0,522
5,0,344,1,1,436
5,0,345,0,0,631
5,0,346,1,1,427
5,0,347,1,1,444
5,0,348,0,0,561
5,0,349,1,1,753
5,0,350,1,1,546
5,0,351,1,1,431
5,0,352,0,0,641
5,0,353,0,0,572
5,0,354,1,1,468
5,0,355,1,1,522
5,0,356,1,1,520
5,0,357,0,0,578
5,0,358,1,1,424
5,0,359,1,1,560
5,0,360,1,1,440
5,0,361,1,1,527
5,0,362,0,0,537
5,0,363,0,0,873
5,0,364,0,0,641
5,0,365,1,1,629
5,0,366,1,1,579
5,0,367,0,0,643
5,0,368,0,0,611
5,0,369,0,0,642
5,0,370,0,0,535
5,0,371,1,1,617
5,0,372,1,1,492
5,0,373,0,0,524
5,0,374,1,1,566
5,0,375,1,1,516
5,0,376,1,1,466
5,0,377,0,0,492
5,0,378,0,0,635
5,0,379,0,0,502
5,0,380,1,1,607
5,0,381,1,1,568
5,0,382,0,0,591
5,0,383,1,1,628
5,0,384,1,1,567
5,0,385,1,1,545
5,0,386,1,1,503
5,0,387,1,1,392
5,0,388,0,0,563
5,0,389,0,0,570
5,0,390,0,0,471
5,0,391,1,1,445
5,0,392,1,1,517
5,0,393,0,0,569
5,0,394,1,1,525
5,0,395,0,0,498
5,0,396,1,1,505
5,0,397,0,0,564
5,0,398,0,0,503
5,0,399,0,0,573
5,0,400,1,1,628
5,0,401,1,1,552
5,0,402,1,1,674
5,0,403,1,1,463
5,0,404,0,0,737
5,0,405,0,0,698
5,0,406,1,1,545
5,0,407,0,0,752
5,0,408,1,1,408
5,0,409,0,0,1202
5,0,410,0,0,569
5,0,411,1,1,560
5,0,412,1,1,548
5,0,413,1,1,492
5,0,414,0,0,517
5,0,415,0,0,641
5,0,416,0,0,564
5,0,417,1,1,606
5,0,418,0,0,556
5,0,419,0,0,545
5,0,420,1,1,436
5,0,421,1,1,427
5,0,422,0,0,536
5,0,423,0,0,598
5,0,424,0,0,480
5,0,425,1,1,668
5,0,426,1,1,531
5,0,427,1,1,558
5,0,428,0,0,666
5,0,429,1,1,538
5,0,430,0,0,517
5,0,431,0,0,634
5,0,432,1,1,451
5,0,433,0,0,531
5,0,434,0,0,742
5,0,435,0,0,643
5,0,436,1,1,604
5,0,437,1,1,581
5,0,438,0,0,548
5,0,439,1,1,408
5,0,440,0,1,644
5,0,441,1,1,731
5,0,442,0,0,822
5,0,443,1,1,599
5,0,444,1,1,1068
5,0,445,0,0,773
5,0,446,0,0,647
5,0,447,1,1,510
5,0,448,0,0,842
5,0,449,1,1,488
5,0,450,0,0,595
5,0,451,1,1,510
5,0,452,1,1,502
5,0,453,1,1,568
5,0,454,1,1,512
5,0,455,0,0,593
5,0,456,0,0,633
5,0,457,0,0,497
5,0,458,0,0,566
5,0,459,0,0,525
5,0,460,0,0,531
5,0,461,1,1,551
5,0,462,1,1,527
5,0,463,1,1,441
5,0,464,1,1,453
5,0,465,0,0,578
5,0,466,0,0,652
5,0,467,1,1,410
5,0,468,1,1,577
5,0,469,1,1,492
5,0,470,0,0,627
5,0,471,0,0,620
5,0,472,1,1,523
5,0,473,1,1,680
5,0,474,0,0,611
5,0,475,0,0,565
5,0,476,0,0,607
5,0,477,0,0,662
5,0,478,0,0,550
5,0,479,1,1,430
5,0,480,0,0,763
6,0,1,0,0,760
6,0,2,1,1,808
6,0,3,0,0,848
6,0,4,1,1,852
6,0,5,1,1,653
6,0,6,0,0,625
6,0,7,1,1,646
6,0,8,0,0,648
6,0,9,0,0,679
6,0,10,1,1,666
6,0,11,0,0,607
6,0,12,1,1,624
6,0,13,1,1,651
6,0,14,0,0,600
6,0,15,1,1,684
6,0,16,1,1,694
6,0,17,1,1,979
6,0,18,0,0,693
6,0,19,1,1,901
6,0,20,1,1,908
6,0,21,1,1,878
6,0,22,0,0,739
6,0,23,1,1,774
6,0,24,0,0,977
6,0,25,1,1,977
6,0,26,0,0,737
6,0,27,1,1,764
6,0,28,0,0,658
6,0,29,1,1,638
6,0,30,0,0,730
6,0,31,1,1,709
6,0,32,1,1,865
6,0,33,0,0,862
6,0,34,1,1,640
6,0,35,1,1,833
6,0,36,1,1,1406
6,0,37,1,1,667
6,0,38,0,0,681
6,0,39,0,0,675
6,0,40,0,0,705
6,0,41,0,0,572
6,0,42,1,1,649
6,0,43,0,0,577
6,0,44,1,1,683
6,0,45,0,0,456
6,0,46,1,1,798
6,0,47,1,1,860
6,0,48,0,0,664
6,0,49,0,0,700
6,0,50,0,0,582
6,0,51,1,1,1054
6,0,52,0,0,813
6,0,53,0,0,700
6,0,54,1,1,608
6,0,55,1,1,611
6,0,56,0,0,732
6,0,57,1,1,915
6,0,58,0,0,748
6,0,59,0,0,658
6,0,60,1,1,961
6,0,61,1,1,789
6,0,62,0,0,649
6,0,63,0,0,700
6,0,64,0,0,746
6,0,65,1,1,763
6,0,66,0,0,616
6,0,67,0,0,810
6,0,68,0,0,451
6,0,69,0,0,599
6,0,70,0,0,697
6,0,71,1,1,756
6,0,72,0,0,599
6,0,73,1,1,883
6,0,74,0,0,678
6,0,75,1,1,883
6,0,76,0,0,651
6,0,77,0,0,649
6,0,78,0,0,671
6,0,79,1,1,795
6,0,80,1,1,969
6,0,81,1,1,699
6,0,82,1,1,763
6,0,83,1,1,820
6,0,84,0,0,1021
6,0,85,1,1,635
6,0,86,0,0,675
6,0,87,0,0,561
6,0,88,0,0,768
6,0,89,1,1,721
6,0,90,0,0,654
6,0,91,0,0,686
6,0,92,1,1,853
6,0,93,1,1,1097
6,0,94,0,0,694
6,0,95,0,0,597
6,0,96,1,1,762
6,0,97,0,0,651
6,0,98,1,1,822
6,0,99,0,0,649
6,0,100,1,1,843
6,0,101,1,1,929
6,0,102,0,0,696
6,0,103,1,1,625
6,0,104,1,1,925
6,0,105,0,0,577
6,0,106,0,0,616
6,0,107,0,0,808
6,0,108,1,1,1000
6,0,109,1,1,775
6,0,110,0,0,923
6,0,111,1,1,873
6,0,112,0,0,713
6,0,113,0,0,696
6,0,114,1,1,826
6,0,115,1,1,734
6,0,116,1,1,637
6,0,117,0,0,630
6,0,118,0,0,599
6,0,119,0,0,575
6,0,120,1,1,625
6,0,121,0,0,616
6,0,122,0,0,735
6,0,123,0,0,635
6,0,124,1,1,648
6,0,125,1,1,785
6,0,126,0,0,708
6,0,127,1,1,1129
6,0,128,0,0,787
6,0,129,0,0,696
6,0,130,1,1,584
6,0,131,0,0,646
6,0,132,0,0,757
6,0,133,1,1,697
6,0,134,1,1,1088
6,0,135,1,1,777
6,0,136,0,0,739
6,0,137,1,1,661
6,0,138,1,1,957
6,0,139,1,1,661
6,0,140,1,1,871
6,0,141,1,1,595
6,0,142,1,1,582
6,0,143,0,0,903
6,0,144,1,1,775
6,0,145,1,1,913
6,0,146,0,0,555
6,0,147,1,1,656
6,0,148,0,0,649
6,0,149,1,1,688
6,0,150,1,1,764
6,0,151,1,1,731
6,0,152,1,1,636
6,0,153,0,0,627
6,0,154,0,0,600
6,0,155,0,0,595
6,0,156,0,0,640
6,0,157,1,1,752
6,0,158,1,1,768
6,0,159,1,1,720
6,0,160,1,1,782
6,0,161,1,1,820
6,0,162,0,0,1016
6,0,163,1,1,631
6,0,164,0,0,617
6,0,165,1,1,949
6,0,166,0,0,627
6,0,167,0,0,586
6,0,168,0,0,584
6,0,169,1,1,759
6,0,170,0,0,587
6,0,171,1,1,898
6,0,172,1,1,1001
6,0,173,1,1,905
6,0,174,0,0,740
6,0,175,0,0,651
6,0,176,0,0,566
6,0,177,1,1,654
6,0,178,0,0,634
6,0,179,0,0,726
6,0,180,1,1,667
6,0,181,0,0,506
6,0,182,1,1,638
6,0,183,1,1,705
6,0,184,1,1,645
6,0,185,0,0,719
6,0,186,0,0,677
6,0,187,1,1,641
6,0,188,1,1,612
6,0,189,1,1,1033
6,0,190,0,0,640
6,0,191,0,0,614
6,0,192,1,1,753
6,0,193,0,0,675
6,0,194,1,1,757
6,0,195,1,1,613
6,0,196,0,0,481
6,0,197,0,0,468
6,0,198,1,1,598
6,0,199,1,1,896
6,0,200,1,1,553
6,0,201,0,0,592
6,0,202,0,0,555
6,0,203,1,1,686
6,0,204,0,0,618
6,0,205,0,0,587
6,0,206,1,1,796
6,0,207,0,0,546
6,0,208,0,0,578
6,0,209,0,0,585
6,0,210,1,1,746
6,0,211,0,0,670
6,0,212,0,0,618
6,0,213,0,0,655
6,0,214,1,1,644
6,0,215,1,1,1002
6,0,216,1,1,562
6,0,217,0,0,588
6,0,218,0,0,491
6,0,219,0,0,667
6,0,220,0,0,598
6,0,221,0,0,514
6,0,222,1,1,581
6,0,223,1,1,762
6,0,224,1,1,1159
6,0,225,1,1,457
6,0,226,0,0,599
6,0,227,0,0,584
6,0,228,0,0,593
6,0,229,1,1,667
6,0,230,1,1,600
6,0,231,0,0,638
6,0,232,0,0,600
6,0,233,0,0,698
6,0,234,0,0,604
6,0,235,0,0,593
6,0,236,1,1,614
6,0,237,0,0,758
6,0,238,1,1,666
6,0,239,1,1,783
6,0,240,0,0,652
6,0,241,0,0,636
6,0,242,0,0,447
6,0,243,0,0,456
6,0,244,1,1,733
6,0,245,0,0,525
6,0,246,1,1,635
6,0,247,1,1,748
6,0,248,0,0,564
6,0,249,1,1,645
6,0,250,0,0,659
6,0,251,1,1,558
6,0,252,1,1,784
6,0,253,0,0,521
6,0,254,1,1,543
6,0,255,1,1,876
6,0,256,1,1,450
6,0,257,1,1,589
6,0,258,0,0,434
6,0,259,1,1,612
6,0,260,1,1,647
6,0,261,1,1,587
6,0,262,0,0,548
6,0,263,1,1,695
6,0,264,0,0,491
6,0,265,1,1,522
6,0,266,0,0,501
6,0,267,0,0,616
6,0,268,0,0,571
6,0,269,1,1,631
6,0,270,0,0,821
6,0,271,1,1,469
6,0,272,1,1,864
6,0,273,1,1,698
6,0,274,0,0,511
6,0,275,0,0,649
6,0,276,1,1,641
6,0,277,0,0,498
6,0,278,1,1,881
6,0,279,1,1,694
6,0,280,0,0,584
6,0,281,0,0,571
6,0,282,1,1,710
6,0,283,1,1,991
6,0,284,0,0,578
6,0,285,1,1,863
6,0,286,0,0,527
6,0,287,0,0,624
6,0,288,1,1,744
6,0,289,1,1,555
6,0,290,0,0,657
6,0,291,0,0,526
6,0,292,0,0,588
6,0,293,0,0,581
6,0,294,0,0,505
6,0,295,0,0,555
6,0,296,0,0,558
6,0,297,0,0,525
6,0,298,0,0,1047
6,0,299,1,1,582
6,0,300,1,1,593
6,0,301,0,0,466
6,0,302,0,0,526
6,0,303,1,1,785
6,0,304,1,1,567
6,0,305,0,0,623
6,0,306,0,0,551
6,0,307,1,1,606
6,0,308,0,0,627
6,0,309,1,1,854
6,0,310,0,0,568
6,0,311,0,0,615
6,0,312,1,1,713
6,0,313,1,1,638
6,0,314,0,0,722
6,0,315,0,0,519
6,0,316,1,1,547
6,0,317,1,1,626
6,0,318,0,0,605
6,0,319,0,0,900
6,0,320,0,0,654
6,0,321,0,0,545
6,0,322,1,1,886
6,0,323,1,1,480
6,0,324,1,1,532
6,0,325,0,0,494
6,0,326,1,1,557
6,0,327,1,1,1016
6,0,328,1,1,514
6,0,329,1,1,650
6,0,330,1,1,505
6,0,331,1,1,478
6,0,332,1,1,551
6,0,333,1,1,594
6,0,334,0,0,624
6,0,335,1,1,513
6,0,336,1,1,780
6,0,337,0,0,741
6,0,338,0,0,559
6,0,339,0,0,576
6,0,340,1,1,573
6,0,341,0,0,618
6,0,342,1,1,615
6,0,343,0,0,599
6,0,344,0,0,778
6,0,345,1,1,687
6,0,346,1,1,712
6,0,347,1,1,537
6,0,348,1,1,507
6,0,349,1,1,658
6,0,350,0,0,586
6,0,351,1,1,569
6,0,352,1,1,563
6,0,353,1,1,646
6,0,354,0,0,583
6,0,355,1,1,752
6,0,356,1,1,557
6,0,357,1,1,672
6,0,358,0,0,791
6,0,359,1,1,522
6,0,360,1,1,818
6,0,361,1,1,555
6,0,362,0,0,515
6,0,363,0,0,436
6,0,364,0,0,520
6,0,365,1,1,643
6,0,366,0,0,648
6,0,367,0,0,547
6,0,368,0,0,659
6,0,369,0,0,724
6,0,370,1,1,715
6,0,371,1,1,569
6,0,372,1,1,580
6,0,373,0,0,596
6,0,374,0,0,626
6,0,375,0,0,476
6,0,376,0,0,449
6,0,377,1,1,912
6,0,378,0,0,564
6,0,379,0,0,513
6,0,380,0,0,505
6,0,381,0,0,515
6,0,382,1,1,523
6,0,383,1,1,537
6,0,384,0,0,478
6,0,385,1,1,702
6,0,386,0,0,546
6,0,387,0,0,506
6,0,388,1,1,652
6,0,389,0,0,526
6,0,390,0,0,720
6,0,391,0,0,489
6,0,392,1,1,570
6,0,393,1,1,838
6,0,394,0,0,749
6,0,395,0,0,493
6,0,396,0,0,571
6,0,397,0,0,552
6,0,398,0,0,452
6,0,399,0,0,502
6,0,400,1,1,422
6,0,401,0,0,518
6,0,402,1,1,662
6,0,403,1,1,702
6,0,404,0,0,610
6,0,405,0,0,592
6,0,406,0,0,491
6,0,407,0,0,501
6,0,408,1,1,799
6,0,409,0,0,470
6,0,410,0,0,534
6,0,411,0,0,449
6,0,412,1,1,689
6,0,413,1,1,788
6,0,414,1,1,662
6,0,415,0,0,558
6,0,416,0,0,533
6,0,417,0,0,469
6,0,418,1,1,428
6,0,419,0,0,474
6,0,420,0,0,491
6,0,421,1,1,485
6,0,422,1,1,566
6,0,423,1,1,451
6,0,424,0,0,630
6,0,425,0,0,504
6,0,426,1,1,458
6,0,427,1,1,553
6,0,428,1,1,643
6,0,429,0,0,680
6,0,430,0,0,448
6,0,431,0,0,490
6,0,432,0,0,688
6,0,433,0,1,511
6,0,434,0,0,469
6,0,435,1,1,1084
6,0,436,1,1,583
6,0,437,0,0,631
6,0,438,0,0,476
6,0,439,1,1,727
6,0,440,1,1,630
6,0,441,0,0,984
6,0,442,1,1,574
6,0,443,0,0,572
6,0,444,0,0,489
6,0,445,1,1,647
6,0,446,0,0,524
6,0,447,1,1,964
6,0,448,0,0,432
6,0,449,1,1,521
6,0,450,1,1,502
6,0,451,0,0,511
6,0,452,1,1,452
6,0,453,1,1,625
6,0,454,1,1,600
6,0,455,0,0,612
6,0,456,0,0,552
6,0,457,1,1,582
6,0,458,1,1,714
6,0,459,0,0,534
6,0,460,1,1,805
6,0,461,1,1,760
6,0,462,1,1,470
6,0,463,0,0,570
6,0,464,0,0,505
6,0,465,1,1,528
6,0,466,0,0,531
6,0,467,0,0,572
6,0,468,1,1,605
6,0,469,0,0,511
6,0,470,1,1,590
6,0,471,0,0,583
6,0,472,0,0,483
6,0,473,1,1,631
6,0,474,0,0,490
6,0,475,0,0,481
6,0,476,1,1,840
6,0,477,1,1,614
6,0,478,1,1,513
6,0,479,1,1,419
6,0,480,1,1,549
7,1,1,0,0,620
7,1,2,1,1,667
7,1,3,1,1,647
7,1,4,1,1,548
7,1,5,1,1,807
7,1,6,1,1,566
7,1,7,0,0,503
7,1,8,0,0,585
7,1,9,1,1,510
7,1,10,1,1,505
7,1,11,0,0,434
7,1,12,0,0,498
7,1,13,0,0,456
7,1,14,1,1,949
7,1,15,0,0,403
7,1,16,0,0,470
7,1,17,1,1,422
7,1,18,0,0,390
7,1,19,0,0,410
7,1,20,0,0,541
7,1,21,1,1,448
7,1,22,1,1,477
7,1,23,0,0,431
7,1,24,0,0,461
7,1,25,0,0,398
7,1,26,0,0,419
7,1,27,1,1,438
7,1,28,0,0,549
7,1,29,1,1,585
7,1,30,1,1,703
7,1,31,0,0,542
7,1,32,1,1,451
7,1,33,1,1,595
7,1,34,1,1,485
7,1,35,1,1,469
7,1,36,1,1,488
7,1,37,1,1,482
7,1,38,0,0,522
7,1,39,0,0,423
7,1,40,0,0,630
7,1,41,1,1,570
7,1,42,0,0,416
7,1,43,0,0,436
7,1,44,1,1,471
7,1,45,0,0,529
7,1,46,1,1,443
7,1,47,0,0,438
7,1,48,0,0,630
7,1,49,1,1,571
7,1,50,1,1,450
7,1,51,1,1,551
7,1,52,1,1,520
7,1,53,1,1,499
7,1,54,0,0,439
7,1,55,0,0,546
7,1,56,0,0,416
7,1,57,1,1,417
7,1,58,1,1,460
7,1,59,0,0,678
7,1,60,1,1,483
7,1,61,1,1,484
7,1,62,0,0,411
7,1,63,0,0,432
7,1,64,1,1,556
7,1,65,1,1,464
7,1,66,0,0,411
7,1,67,1,1,530
7,1,68,0,0,564
7,1,69,1,1,522
7,1,70,0,0,452
7,1,71,0,0,586
7,1,72,0,0,541
7,1,73,0,0,528
7,1,74,0,0,413
7,1,75,0,0,444
7,1,76,0,0,457
7,1,77,0,0,749
7,1,78,0,0,448
7,1,79,1,1,498
7,1,80,0,0,421
7,1,81,0,0,403
7,1,82,1,1,440
7,1,83,0,0,397
7,1,84,1,1,676
7,1,85,0,0,493
7,1,86,0,0,449
7,1,87,1,1,459
7,1,88,1,1,468
7,1,89,1,1,471
7,1,90,1,1,485
7,1,91,1,1,451
7,1,92,1,1,444
7,1,93,0,0,486
7,1,94,1,1,436
7,1,95,0,0,445
7,1,96,0,0,432
7,1,97,0,0,470
7,1,98,0,0,665
7,1,99,0,0,395
7,1,100,0,0,454
7,1,101,0,0,413
7,1,102,0,0,406
7,1,103,1,1,452
7,1,104,1,1,624
7,1,105,0,0,362
7,1,106,0,0,439
7,1,107,1,0,435
7,1,108,0,0,657
7,1,109,1,1,582
7,1,110,0,0,601
7,1,111,1,1,461
7,1,112,0,0,614
7,1,113,1,1,499
7,1,114,0,0,624
7,1,115,0,0,421
7,1,116,1,1,433
7,1,117,0,0,459
7,1,118,1,1,423
7,1,119,1,1,509
7,1,120,0,0,486
7,1,121,0,0,543
7,1,122,0,0,608
7,1,123,1,1,406
7,1,124,0,0,553
7,1,125,0,0,419
7,1,126,1,1,495
7,1,127,0,0,407
7,1,128,1,1,554
7,1,129,0,0,508
7,1,130,0,0,419
7,1,131,1,1,462
7,1,132,1,1,542
7,1,133,0,0,425
7,1,134,0,0,437
7,1,135,0,0,493
7,1,136,1,1,576
7,1,137,1,1,508
7,1,138,0,0,433
7,1,139,1,1,457
7,1,140,1,1,614
7,1,141,1,1,442
7,1,142,1,1,542
7,1,143,0,0,484
7,1,144,1,1,439
7,1,145,1,1,523
7,1,146,1,1,476
7,1,147,1,1,438
7,1,148,1,1,454
7,1,149,1,1,402
7,1,150,1,1,510
7,1,151,1,1,494
7,1,152,0,0,720
7,1,153,1,1,664
7,1,154,1,1,595
7,1,155,0,0,600
7,1,156,0,0,462
7,1,157,0,0,544
7,1,158,0,0,645
7,1,159,1,1,537
7,1,160,1,1,610
7,1,161,0,0,360
7,1,162,0,0,621
7,1,163,0,0,637
7,1,164,0,0,484
7,1,165,1,1,584
7,1,166,0,0,695
7,1,167,1,1,490
7,1,168,1,1,500
7,1,169,0,0,558
7,1,170,0,0,632
7,1,171,1,1,534
7,1,172,0,0,599
7,1,173,0,0,758
7,1,174,0,0,731
7,1,175,0,0,426
7,1,176,1,1,424
7,1,177,0,0,442
7,1,178,0,0,568
7,1,179,0,0,465
7,1,180,1,1,519
7,1,181,0,0,479
7,1,182,1,1,554
7,1,183,1,1,670
7,1,184,0,0,408
7,1,185,1,0,469
7,1,186,0,0,680
7,1,187,0,0,467
7,1,188,0,0,472
7,1,189,1,1,652
7,1,190,1,1,589
7,1,191,0,0,646
7,1,192,0,0,613
7,1,193,1,1,531
7,1,194,1,1,507
7,1,195,0,0,752
7,1,196,1,1,529
7,1,197,1,1,633
7,1,198,1,1,642
7,1,199,1,1,549
7,1,200,0,0,481
7,1,201,1,1,576
7,1,202,0,0,539
7,1,203,0,0,485
7,1,204,0,0,533
7,1,205,1,1,635
7,1,206,1,1,549
7,1,207,0,0,470
7,1,208,0,0,505
7,1,209,1,1,530
7,1,210,1,1,534
7,1,211,0,0,465
7,1,212,1,1,502
7,1,213,0,0,487
7,1,214,0,0,535
7,1,215,1,1,596
7,1,216,1,1,507
7,1,217,0,0,560
7,1,218,1,1,779
7,1,219,1,1,568
7,1,220,1,1,497
7,1,221,1,1,472
7,1,222,1,1,651
7,1,223,0,0,474
7,1,224,0,0,603
7,1,225,1,1,706
7,1,226,0,0,426
7,1,227,1,1,674
7,1,228,1,1,458
7,1,229,1,1,584
7,1,230,1,1,620
7,1,231,1,1,491
7,1,232,0,0,648
7,1,233,1,1,626
7,1,234,0,0,1081
7,1,235,0,0,787
7,1,236,0,0,609
7,1,237,1,1,474
7,1,238,0,0,465
7,1,239,1,1,611
7,1,240,0,0,535
7,1,241,1,1,624
7,1,242,0,0,543
7,1,243,1,1,458
7,1,244,1,1,549
7,1,245,1,1,637
7,1,246,0,0,492
7,1,247,0,0,581
7,1,248,0,0,658
7,1,249,1,1,628
7,1,250,0,0,575
7,1,251,0,0,409
7,1,252,1,1,607
7,1,253,1,1,738
7,1,254,0,0,661
7,1,255,0,0,452
7,1,256,0,0,447
7,1,257,0,0,586
7,1,258,1,1,775
7,1,259,1,1,594
7,1,260,1,1,634
7,1,261,0,0,423
7,1,262,0,0,593
7,1,263,1,1,544
7,1,264,1,1,514
7,1,265,1,1,557
7,1,266,1,1,555
7,1,267,1,1,556
7,1,268,1,1,506
7,1,269,1,1,584
7,1,270,1,1,470
7,1,271,0,0,560
7,1,272,0,0,513
7,1,273,1,1,502
7,1,274,1,1,493
7,1,275,0,0,494
7,1,276,0,0,393
7,1,277,1,1,717
7,1,278,1,1,648
7,1,279,0,0,545
7,1,280,0,0,500
7,1,281,0,0,531
7,1,282,1,1,912
7,1,283,1,1,600
7,1,284,0,0,511
7,1,285,1,1,672
7,1,286,0,0,647
7,1,287,0,0,594
7,1,288,1,1,641
7,1,289,1,1,661
7,1,290,1,1,507
7,1,291,0,0,466
7,1,292,1,1,710
7,1,293,1,1,566
7,1,294,0,0,619
7,1,295,0,0,446
7,1,296,0,0,452
7,1,297,1,1,512
7,1,298,1,1,460
7,1,299,0,0,505
7,1,300,1,1,509
7,1,301,1,1,663
7,1,302,0,0,402
7,1,303,0,0,492
7,1,304,0,0,534
7,1,305,0,0,467
7,1,306,0,0,451
7,1,307,0,0,371
7,1,308,0,0,395
7,1,309,0,0,389
7,1,310,1,1,577
7,1,311,0,0,581
7,1,312,0,0,493
7,1,313,1,1,571
7,1,314,1,1,478
7,1,315,0,0,476
7,1,316,0,0,490
7,1,317,1,1,671
7,1,318,0,0,454
7,1,319,1,1,459
7,1,320,1,1,488
7,1,321,1,1,425
7,1,322,1,1,427
7,1,323,0,0,483
7,1,324,0,0,416
7,1,325,1,1,391
7,1,326,1,1,653
7,1,327,1,1,566
7,1,328,1,1,497
7,1,329,0,0,501
7,1,330,0,0,642
7,1,331,0,0,812
7,1,332,1,1,522
7,1,333,0,0,454
7,1,334,1,1,662
7,1,335,0,0,449
7,1,336,0,0,561
7,1,337,1,1,449
7,1,338,1,1,479
7,1,339,1,1,418
7,1,340,0,0,605
7,1,341,0,0,588
7,1,342,1,1,496
7,1,343,1,1,572
7,1,344,0,0,459
7,1,345,0,0,414
7,1,346,1,1,489
7,1,347,0,0,416
7,1,348,1,1,670
7,1,349,1,1,582
7,1,350,1,1,663
7,1,351,1,1,589
7,1,352,1,1,425
7,1,353,0,0,354
7,1,354,1,1,447
7,1,355,0,0,444
7,1,356,0,0,600
7,1,357,0,0,547
7,1,358,1,1,419
7,1,359,1,1,570
7,1,360,0,0,475
7,1,361,0,0,542
7,1,362,0,0,473
7,1,363,1,1,400
7,1,364,0,0,396
7,1,365,0,0,464
7,1,366,1,1,380
7,1,367,1,1,558
7,1,368,1,1,489
7,1,369,1,1,488
7,1,370,0,0,471
7,1,371,1,1,395
7,1,372,0,0,441
7,1,373,0,0,736
7,1,374,0,0,609
7,1,375,0,0,418
7,1,376,1,1,364
7,1,377,0,0,538
7,1,378,0,0,443
7,1,379,0,0,419
7,1,380,0,0,406
7,1,381,1,1,487
7,1,382,0,0,437
7,1,383,1,1,541
7,1,384,1,1,516
7,1,385,0,0,413
7,1,386,1,1,560
7,1,387,1,1,474
7,1,388,1,1,620
7,1,389,0,0,415
7,1,390,0,0,500
7,1,391,1,1,498
7,1,392,1,1,547
7,1,393,1,1,469
7,1,394,0,0,529
7,1,395,1,1,481
7,1,396,1,1,517
7,1,397,1,1,458
7,1,398,0,0,420
7,1,399,1,1,527
7,1,400,0,0,584
7,1,401,1,1,491
7,1,402,1,1,474
7,1,403,1,1,585
7,1,404,0,0,471
7,1,405,1,1,490
7,1,406,1,1,574
7,1,407,0,0,473
7,1,408,0,0,509
7,1,409,0,0,454
7,1,410,0,0,457
7,1,411,1,1,560
7,1,412,1,1,554
7,1,413,0,0,417
7,1,414,0,0,391
7,1,415,1,1,368
7,1,416,0,0,399
7,1,417,0,0,433
7,1,418,1,1,572
7,1,419,1,1,550
7,1,420,1,1,499
7,1,421,0,0,498
7,1,422,0,0,402
7,1,423,1,1,434
7,1,424,0,0,588
7,1,425,1,1,599
7,1,426,1,1,484
7,1,427,1,1,423
7,1,428,1,1,508
7,1,429,1,1,380
7,1,430,1,1,506
7,1,431,0,0,649
7,1,432,0,0,856
7,1,433,1,1,634
7,1,434,0,0,413
7,1,435,0,0,505
7,1,436,1,1,589
7,1,437,1,1,483
7,1,438,0,0,408
7,1,439,1,1,530
7,1,440,0,0,405
7,1,441,1,1,546
7,1,442,1,1,509
7,1,443,1,1,541
7,1,444,0,0,606
7,1,445,1,1,592
7,1,446,1,1,501
7,1,447,1,1,589
7,1,448,0,0,611
7,1,449,1,1,616
7,1,450,0,0,495
7,1,451,1,1,484
7,1,452,0,0,389
7,1,453,0,0,434
7,1,454,0,0,391
7,1,455,1,1,504
7,1,456,1,1,539
7,1,457,0,0,435
7,1,458,1,1,474
7,1,459,1,1,579
7,1,460,0,0,443
7,1,461,0,0,427
7,1,462,1,1,608
7,1,463,1,1,468
7,1,464,1,1,469
7,1,465,1,1,509
7,1,466,1,1,434
7,1,467,0,0,445
7,1,468,0,0,511
7,1,469,1,1,763
7,1,470,1,1,546
7,1,471,1,1,502
7,1,472,1,1,484
7,1,473,0,0,528
7,1,474,0,0,558
7,1,475,1,1,504
7,1,476,1,1,426
7,1,477,0,0,423
7,1,478,1,1,498
7,1,479,0,0,411
7,1,480,0,0,445
8,1,1,0,0,570
8,1,2,1,1,744
8,1,3,0,0,667
8,1,4,0,0,732
8,1,5,0,0,804
8,1,6,1,1,813
8,1,7,1,1,1347
8,1,8,0,0,549
8,1,9,0,0,733
8,1,10,1,1,552
8,1,11,1,1,705
8,1,12,1,1,697
8,1,13,1,1,605
8,1,14,1,1,647
8,1,15,0,0,660
8,1,16,1,1,444
8,1,17,1,1,657
8,1,18,0,0,680
8,1,19,0,0,775
8,1,20,0,0,826
8,1,21,0,0,615
8,1,22,0,0,676
8,1,23,1,1,543
8,1,24,0,0,740
8,1,25,1,1,741
8,1,26,0,0,675
8,1,27,1,1,439
8,1,28,0,0,707
8,1,29,1,1,520
8,1,30,0,0,623
8,1,31,0,0,679
8,1,32,0,0,665
8,1,33,0,0,658
8,1,34,1,1,405
8,1,35,0,0,535
8,1,36,0,0,582
8,1,37,1,1,511
8,1,38,1,1,510
8,1,39,1,1,443
8,1,40,0,0,578
8,1,41,0,0,599
8,1,42,0,0,637
8,1,43,1,1,491
8,1,44,0,0,622
8,1,45,0,0,605
8,1,46,1,1,554
8,1,47,0,0,741
8,1,48,1,1,498
8,1,49,0,0,681
8,1,50,1,1,386
8,1,51,1,1,622
8,1,52,1,1,432
8,1,53,1,1,399
8,1,54,1,1,447
8,1,55,1,1,387
8,1,56,0,0,592
8,1,57,0,0,650
8,1,58,1,1,379
8,1,59,0,0,594
8,1,60,0,0,725
8,1,61,1,1,481
8,1,62,0,0,455
8,1,63,0,0,681
8,1,64,1,1,407
8,1,65,1,0,417
8,1,66,1,1,479
8,1,67,0,0,626
8,1,68,0,0,721
8,1,69,0,0,626
8,1,70,0,0,604
8,1,71,1,1,599
8,1,72,0,0,805
8,1,73,1,1,457
8,1,74,0,0,664
8,1,75,1,1,408
8,1,76,0,0,539
8,1,77,0,0,560
8,1,78,0,0,645
8,1,79,1,1,495
8,1,80,1,1,529
8,1,81,0,0,557
8,1,82,0,0,573
8,1,83,0,0,712
8,1,84,1,1,534
8,1,85,1,1,628
8,1,86,0,0,645
8,1,87,1,1,582
8,1,88,1,1,578
8,1,89,0,0,586
8,1,90,1,1,427
8,1,91,0,0,673
8,1,92,1,1,395
8,1,93,1,1,523
8,1,94,0,0,573
8,1,95,1,1,451
8,1,96,1,1,637
8,1,97,0,0,799
8,1,98,0,0,724
8,1,99,1,1,496
8,1,100,1,1,455
8,1,101,0,0,642
8,1,102,1,1,481
8,1,103,0,0,628
8,1,104,1,1,458
8,1,105,0,0,644
8,1,106,0,0,590
8,1,107,0,0,517
8,1,108,0,0,562
8,1,109,1,1,397
8,1,110,0,0,692
8,1,111,1,1,365
8,1,112,0,0,629
8,1,113,1,1,399
8,1,114,1,1,509
8,1,115,0,0,598
8,1,116,0,0,655
8,1,117,0,0,494
8,1,118,0,0,592
8,1,119,1,1,476
8,1,120,0,0,486
8,1,121,1,1,459
8,1,122,1,1,405
8,1,123,0,0,492
8,1,124,0,0,508
8,1,125,1,1,335
8,1,126,1,1,506
8,1,127,0,0,394
8,1,128,1,1,371
8,1,129,1,1,575
8,1,130,0,0,423
8,1,131,0,1,445
8,1,132,1,1,601
8,1,133,1,1,524
8,1,134,0,0,480
8,1,135,1,1,341
8,1,136,1,1,396
8,1,137,0,0,662
8,1,138,0,0,487
8,1,139,0,1,397
8,1,140,1,1,494
8,1,141,0,0,549
8,1,142,0,0,448
8,1,143,1,1,374
8,1,144,0,0,450
8,1,145,0,0,458
8,1,146,1,1,631
8,1,147,1,1,682
8,1,148,0,0,503
8,1,149,1,1,601
8,1,150,1,1,515
8,1,151,0,0,643
8,1,152,1,1,500
8,1,153,0,0,517
8,1,154,0,0,483
8,1,155,0,0,583
8,1,156,1,1,390
8,1,157,0,0,452
8,1,158,0,0,700
8,1,159,1,1,403
8,1,160,0,0,590
8,1,161,1,1,542
8,1,162,0,0,472
8,1,163,1,1,389
8,1,164,0,0,372
8,1,165,1,1,398
8,1,166,0,0,466
8,1,167,0,0,566
8,1,168,0,0,495
8,1,169,1,1,493
8,1,170,0,0,560
8,1,171,0,0,514
8,1,172,0,0,432
8,1,173,1,0,517
8,1,174,0,0,603
8,1,175,1,1,537
8,1,176,0,0,519
8,1,177,0,0,602
8,1,178,1,1,576
8,1,179,1,1,512
8,1,180,1,1,494
8,1,181,0,0,536
8,1,182,0,0,672
8,1,183,1,1,426
8,1,184,0,0,563
8,1,185,1,1,413
8,1,186,0,0,523
8,1,187,1,1,470
8,1,188,0,0,504
8,1,189,1,1,421
8,1,190,0,0,550
8,1,191,0,0,512
8,1,192,0,0,486
8,1,193,0,0,530
8,1,194,0,0,711
8,1,195,0,0,557
8,1,196,1,1,415
8,1,197,1,1,628
8,1,198,0,0,449
8,1,199,1,1,441
8,1,200,0,0,513
8,1,201,1,1,378
8,1,202,0,0,524
8,1,203,1,1,522
8,1,204,1,1,540
8,1,205,1,1,560
8,1,206,1,1,499
8,1,207,1,1,415
8,1,208,1,1,429
8,1,209,1,1,399
8,1,210,0,0,540
8,1,211,1,1,463
8,1,212,1,1,405
8,1,213,1,1,491
8,1,214,1,1,536
8,1,215,0,0,443
8,1,216,0,0,530
8,1,217,1,1,483
8,1,218,0,0,554
8,1,219,1,1,449
8,1,220,1,1,511
8,1,221,0,0,638
8,1,222,1,1,516
8,1,223,1,1,636
8,1,224,0,0,439
8,1,225,1,1,419
8,1,226,0,0,501
8,1,227,0,0,626
8,1,228,1,1,563
8,1,229,0,0,568
8,1,230,1,1,696
8,1,231,1,1,531
8,1,232,1,1,547
8,1,233,1,1,605
8,1,234,0,0,613
8,1,235,0,0,492
8,1,236,0,0,597
8,1,237,0,0,632
8,1,238,1,1,432
8,1,239,1,1,534
8,1,240,1,1,511
8,1,241,1,1,471
8,1,242,0,0,462
8,1,243,0,0,508
8,1,244,1,1,415
8,1,245,1,1,524
8,1,246,0,0,515
8,1,247,1,1,406
8,1,248,0,0,567
8,1,249,0,0,515
8,1,250,1,1,523
8,1,251,1,1,590
8,1,252,1,1,739
8,1,253,0,0,469
8,1,254,1,1,376
8,1,255,0,0,397
8,1,256,0,0,614
8,1,257,1,1,622
8,1,258,1,1,472
8,1,259,1,1,506
8,1,260,1,1,460
8,1,261,1,1,502
8,1,262,0,0,429
8,1,263,1,1,499
8,1,264,0,0,557
8,1,265,1,1,508
8,1,266,0,0,459
8,1,267,0,0,513
8,1,268,0,0,499
8,1,269,0,0,559
8,1,270,1,1,506
8,1,271,0,0,465
8,1,272,1,1,506
8,1,273,1,1,525
8,1,274,1,1,560
8,1,275,1,1,481
8,1,276,0,0,565
8,1,277,1,1,452
8,1,278,1,1,490
8,1,279,1,1,478
8,1,280,0,0,461
8,1,281,0,0,510
8,1,282,1,1,383
8,1,283,0,0,633
8,1,284,1,1,473
8,1,285,0,0,606
8,1,286,0,0,494
8,1,287,1,1,395
8,1,288,1,1,565
8,1,289,1,1,436
8,1,290,0,0,500
8,1,291,0,0,508
8,1,292,0,0,508
8,1,293,0,0,657
8,1,294,0,0,543
8,1,295,1,1,422
8,1,296,0,0,467
8,1,297,0,0,413
8,1,298,0,0,499
8,1,299,1,1,359
8,1,300,0,0,447
8,1,301,0,0,600
8,1,302,1,1,510
8,1,303,1,1,469
8,1,304,0,0,508
8,1,305,0,0,469
8,1,306,1,1,559
8,1,307,1,1,569
8,1,308,0,0,489
8,1,309,0,0,570
8,1,310,1,1,513
8,1,311,0,0,478
8,1,312,1,1,399
8,1,313,1,1,564
8,1,314,0,0,551
8,1,315,0,0,558
8,1,316,0,0,514
8,1,317,1,1,412
8,1,318,0,0,536
8,1,319,0,0,526
8,1,320,0,0,507
8,1,321,0,0,440
8,1,322,0,0,564
8,1,323,1,1,418
8,1,324,0,0,490
8,1,325,0,0,475
8,1,326,0,0,728
8,1,327,1,1,767
8,1,328,0,0,471
8,1,329,1,1,407
8,1,330,1,1,518
8,1,331,0,0,437
8,1,332,1,1,391
8,1,333,1,1,538
8,1,334,0,0,481
8,1,335,0,0,424
8,1,336,1,1,483
8,1,337,0,0,633
8,1,338,0,0,539
8,1,339,0,0,594
8,1,340,1,1,363
8,1,341,0,0,476
8,1,342,1,1,392
8,1,343,0,0,424
8,1,344,0,0,578
8,1,345,0,0,440
8,1,346,1,0,540
8,1,347,0,0,480
8,1,348,0,0,532
8,1,349,0,0,516
8,1,350,0,0,480
8,1,351,0,0,499
8,1,352,1,1,498
8,1,353,0,0,513
8,1,354,1,1,493
8,1,355,1,1,671
8,1,356,0,0,562
8,1,357,1,1,588
8,1,358,1,1,448
8,1,359,1,1,417
8,1,360,0,0,485
8,1,361,1,1,583
8,1,362,0,0,438
8,1,363,0,0,526
8,1,364,0,0,392
8,1,365,1,1,512
8,1,366,1,1,516
8,1,367,1,1,481
8,1,368,0,0,465
8,1,369,0,0,458
8,1,370,1,1,594
8,1,371,0,0,397
8,1,372,1,1,565
8,1,373,1,1,510
8,1,374,0,0,509
8,1,375,1,1,515
8,1,376,1,1,664
8,1,377,0,0,524
8,1,378,0,0,614
8,1,379,1,1,630
8,1,380,1,1,589
8,1,381,1,1,510
8,1,382,1,1,595
8,1,383,0,0,456
8,1,384,0,0,450
8,1,385,0,0,375
8,1,386,1,1,532
8,1,387,1,1,616
8,1,388,1,1,463
8,1,389,0,0,627
8,1,390,0,0,532
8,1,391,0,0,536
8,1,392,1,1,516
8,1,393,1,1,493
8,1,394,0,0,508
8,1,395,0,0,525
8,1,396,1,1,505
8,1,397,0,0,515
8,1,398,1,1,439
8,1,399,0,0,519
8,1,400,0,0,691
8,1,401,1,1,569
8,1,402,0,0,563
8,1,403,1,1,592
8,1,404,1,1,515
8,1,405,1,1,568
8,1,406,1,1,534
8,1,407,0,0,480
8,1,408,0,0,490
8,1,409,1,1,484
8,1,410,0,0,494
8,1,411,1,1,455
8,1,412,0,0,640
8,1,413,0,0,801
8,1,414,0,0,507
8,1,415,1,1,597
8,1,416,0,0,444
8,1,417,0,0,456
8,1,418,1,1,432
8,1,419,0,0,431
8,1,420,0,0,445
8,1,421,0,0,611
8,1,422,0,0,458
8,1,423,1,1,439
8,1,424,1,1,453
8,1,425,1,1,696
8,1,426,1,1,695
8,1,427,1,1,473
8,1,428,0,0,643
8,1,429,0,0,528
8,1,430,0,0,494
8,1,431,1,1,571
8,1,432,1,1,496
8,1,433,0,0,489
8,1,434,1,1,516
8,1,435,1,1,573
8,1,436,0,0,523
8,1,437,0,0,472
8,1,438,1,1,583
8,1,439,1,1,566
8,1,440,0,0,633
8,1,441,1,1,627
8,1,442,1,1,699
8,1,443,0,0,582
8,1,444,0,0,652
8,1,445,0,0,506
8,1,446,1,1,593
8,1,447,0,0,633
8,1,448,0,0,556
8,1,449,1,1,565
8,1,450,0,0,530
8,1,451,0,0,658
8,1,452,0,0,518
8,1,453,1,1,632
8,1,454,1,1,523
8,1,455,0,0,438
8,1,456,0,0,524
8,1,457,0,0,477
8,1,458,0,0,641
8,1,459,1,1,541
8,1,460,0,0,538
8,1,461,0,0,748
8,1,462,0,0,463
8,1,463,0,0,432
8,1,464,1,1,628
8,1,465,0,0,489
8,1,466,0,0,626
8,1,467,1,1,542
8,1,468,0,0,519
8,1,469,0,0,486
8,1,470,0,0,427
8,1,471,0,0,649
8,1,472,0,0,563
8,1,473,1,1,616
8,1,474,1,1,686
8,1,475,1,1,563
8,1,476,1,1,566
8,1,477,0,0,525
8,1,478,1,1,486
8,1,479,1,1,481
9,0,1,0,0,473
9,0,2,0,0,754
9,0,3,0,0,498
9,0,4,0,0,430
9,0,5,0,0,410
9,0,6,1,1,527
9,0,7,1,1,388
9,0,8,1,1,404
9,0,9,1,1,429
9,0,10,1,1,473
9,0,11,1,1,518
9,0,12,1,1,374
9,0,13,1,1,386
9,0,14,0,0,454
9,0,15,0,0,511
9,0,16,0,0,386
9,0,17,1,1,624
9,0,18,0,0,501
9,0,19,1,1,496
9,0,20,0,0,544
9,0,21,1,1,525
9,0,22,1,1,498
9,0,23,1,1,527
9,0,24,0,0,512
9,0,25,1,1,451
9,0,26,0,0,515
9,0,27,1,1,516
9,0,28,1,1,379
9,0,29,0,0,451
9,0,30,0,0,475
9,0,31,1,1,383
9,0,32,0,0,563
9,0,33,1,1,525
9,0,34,1,0,356
9,0,35,1,1,596
9,0,36,0,0,552
9,0,37,1,1,635
9,0,38,1,1,611
9,0,39,0,0,468
9,0,40,0,0,437
9,0,41,1,1,371
9,0,42,1,1,595
9,0,43,0,0,494
9,0,44,0,0,535
9,0,45,0,0,469
9,0,46,1,1,419
9,0,47,0,0,814
9,0,48,1,1,478
9,0,49,1,1,505
9,0,50,1,1,607
9,0,51,0,0,554
9,0,52,1,1,403
9,0,53,1,1,549
9,0,54,1,1,428
9,0,55,0,0,577
9,0,56,1,1,455
9,0,57,0,0,509
9,0,58,1,1,459
9,0,59,1,1,450
9,0,60,0,0,604
9,0,61,0,0,492
9,0,62,1,1,566
9,0,63,0,0,383
9,0,64,1,1,513
9,0,65,0,0,524
9,0,66,1,1,368
9,0,67,1,1,491
9,0,68,0,0,504
9,0,69,0,0,537
9,0,70,0,0,428
9,0,71,1,1,390
9,0,72,0,0,410
9,0,73,1,1,362
9,0,74,1,1,478
9,0,75,0,0,523
9,0,76,0,0,535
9,0,77,0,0,500
9,0,78,1,1,467
9,0,79,1,1,547
9,0,80,1,1,547
9,0,81,0,0,393
9,0,82,0,0,521
9,0,83,1,1,354
9,0,84,1,1,510
9,0,85,1,1,464
9,0,86,0,0,518
9,0,87,0,0,814
9,0,88,0,0,577
9,0,89,0,1,389
9,0,90,0,0,510
9,0,91,0,0,568
9,0,92,1,1,370
9,0,93,0,0,806
9,0,94,0,0,476
9,0,95,1,1,396
9,0,96,0,0,591
9,0,97,1,1,492
9,0,98,0,0,568
9,0,99,0,0,502
9,0,100,1,1,420
9,0,101,0,0,495
9,0,102,1,1,552
9,0,103,1,1,518
9,0,104,0,0,436
9,0,105,0,0,576
9,0,106,1,1,510
9,0,107,1,1,648
9,0,108,0,0,484
9,0,109,1,1,624
9,0,110,1,1,469
9,0,111,1,1,1636
9,0,112,0,0,550
9,0,113,1,1,415
9,0,114,1,1,476
9,0,115,0,0,635
9,0,116,1,1,502
9,0,117,0,0,577
9,0,118,1,1,469
9,0,119,1,1,533
9,0,120,1,1,473
9,0,121,0,0,372
9,0,122,0,0,670
9,0,123,0,0,552
9,0,124,1,1,485
9,0,125,1,1,539
9,0,126,1,1,515
9,0,127,0,0,485
9,0,128,1,1,370
9,0,129,1,1,708
9,0,130,0,0,494
9,0,131,0,0,591
9,0,132,0,0,454
9,0,133,1,1,362
9,0,134,0,0,465
9,0,135,1,1,556
9,0,136,0,0,422
9,0,137,0,0,435
9,0,138,0,0,474
9,0,139,0,0,427
9,0,140,1,1,382
9,0,141,1,1,433
9,0,142,0,0,419
9,0,143,0,0,520
9,0,144,1,1,783
9,0,145,0,0,451
9,0,146,0,0,483
9,0,147,1,1,530
9,0,148,0,0,412
9,0,149,1,1,376
9,0,150,0,0,414
9,0,151,1,1,397
9,0,152,0,0,406
9,0,153,0,0,555
9,0,154,0,0,467
9,0,155,0,0,465
9,0,156,0,0,502
9,0,157,0,0,478
9,0,158,0,0,466
9,0,159,1,1,486
9,0,160,1,1,544
9,0,161,1,1,418
9,0,162,0,0,551
9,0,163,0,0,452
9,0,164,1,1,739
9,0,165,0,0,545
9,0,166,0,0,643
9,0,167,0,0,467
9,0,168,1,1,587
9,0,169,1,1,557
9,0,170,1,1,609
9,0,171,1,1,525
9,0,172,0,0,513
9,0,173,0,0,533
9,0,174,0,0,542
9,0,175,0,0,448
9,0,176,1,1,466
9,0,177,1,1,578
9,0,178,1,1,1018
9,0,179,1,1,517
9,0,180,0,0,545
9,0,181,0,0,487
9,0,182,1,1,395
9,0,183,0,0,552
9,0,184,1,1,610
9,0,185,1,1,472
9,0,186,0,0,474
9,0,187,1,1,391
9,0,188,1,0,428
9,0,189,0,0,691
9,0,190,1,1,594
9,0,191,1,1,560
9,0,192,1,1,515
9,0,193,0,0,468
9,0,194,1,1,563
9,0,195,1,1,435
9,0,196,1,1,966
9,0,197,1,1,627
9,0,198,0,0,451
9,0,199,0,0,794
9,0,200,1,1,349
9,0,201,1,1,648
9,0,202,0,0,422
9,0,203,1,1,514
9,0,204,0,0,535
9,0,205,1,1,626
9,0,206,0,0,990
9,0,207,1,1,469
9,0,208,0,0,3006
9,0,209,0,1,449
9,0,210,1,1,426
9,0,211,1,1,501
9,0,212,0,0,507
9,0,213,1,1,498
9,0,214,1,1,464
9,0,215,0,0,421
9,0,216,0,0,486
9,0,217,1,1,654
9,0,218,1,1,643
9,0,219,1,1,569
9,0,220,0,0,344
9,0,221,1,1,466
9,0,222,1,0,386
9,0,223,0,0,455
9,0,224,1,1,617
9,0,225,0,0,555
9,0,226,0,0,973
9,0,227,1,1,576
9,0,228,0,0,593
9,0,229,1,1,586
9,0,230,0,0,468
9,0,231,1,1,575
9,0,232,0,0,1075
9,0,233,1,1,512
9,0,234,1,1,642
9,0,235,1,1,579
9,0,236,0,0,597
9,0,237,0,0,567
9,0,238,1,1,659
9,0,239,1,1,438
9,0,240,0,0,415
9,0,241,0,0,513
9,0,242,1,1,385
9,0,243,1,1,459
9,0,244,1,1,604
9,0,245,0,0,379
9,0,246,1,1,535
9,0,247,0,0,529
9,0,248,0,0,563
9,0,249,0,0,470
9,0,250,1,1,363
9,0,251,1,1,624
9,0,252,0,0,475
9,0,253,1,1,402
9,0,254,1,1,382
9,0,255,0,0,427
9,0,256,0,1,408
9,0,257,1,1,506
9,0,258,0,0,487
9,0,259,0,0,497
9,0,260,1,1,355
9,0,261,0,0,437
9,0,262,0,0,504
9,0,263,0,0,426
9,0,264,0,0,419
9,0,265,0,0,443
9,0,266,1,1,335
9,0,267,1,1,484
9,0,268,0,0,497
9,0,269,0,0,408
9,0,270,0,0,434
9,0,271,1,1,461
9,0,272,0,0,394
9,0,273,0,1,459
9,0,274,0,0,425
9,0,275,1,1,539
9,0,276,0,0,512
9,0,277,0,0,492
9,0,278,1,1,472
9,0,279,1,0,532
9,0,280,0,0,446
9,0,281,0,0,445
9,0,282,0,0,485
9,0,283,0,0,631
9,0,284,1,1,538
9,0,285,1,1,1722
9,0,286,1,1,649
9,0,287,1,1,495
9,0,288,0,0,353
9,0,289,1,1,1395
9,0,290,1,1,449
9,0,291,1,1,450
9,0,292,1,1,519
9,0,293,1,1,1114
9,0,294,1,1,549
9,0,295,0,0,578
9,0,296,1,1,417
9,0,297,0,0,463
9,0,298,1,1,949
9,0,299,1,1,513
9,0,300,0,0,476
9,0,301,0,0,509
9,0,302,0,0,721
9,0,303,1,1,362
9,0,304,0,0,477
9,0,305,0,0,492
9,0,306,0,0,464
9,0,307,1,1,418
9,0,308,0,0,374
9,0,309,0,0,432
9,0,310,1,1,591
9,0,311,1,1,527
9,0,312,1,1,639
9,0,313,0,0,582
9,0,314,1,1,458
9,0,315,1,1,475
9,0,316,0,0,422
9,0,317,0,0,427
9,0,318,0,0,408
9,0,319,0,0,610
9,0,320,1,1,369
9,0,321,1,1,497
9,0,322,0,0,507
9,0,323,1,1,484
9,0,324,1,1,561
9,0,325,0,0,490
9,0,326,0,0,419
9,0,327,1,0,438
9,0,328,1,1,418
9,0,329,1,1,451
9,0,330,0,0,439
9,0,331,0,0,460
9,0,332,1,1,369
9,0,333,1,1,582
9,0,334,1,1,457
9,0,335,1,1,492
9,0,336,1,1,1092
9,0,337,0,0,772
9,0,338,1,1,427
9,0,339,1,1,523
9,0,340,0,0,510
9,0,341,0,0,529
9,0,342,0,0,490
9,0,343,0,0,479
9,0,344,0,0,439
9,0,345,1,1,380
9,0,346,0,0,979
9,0,347,0,0,464
9,0,348,1,1,448
9,0,349,1,1,582
9,0,350,0,0,518
9,0,351,1,1,833
9,0,352,1,1,530
9,0,353,0,0,422
9,0,354,0,0,491
9,0,355,1,1,499
9,0,356,0,0,511
9,0,357,1,1,1012
9,0,358,1,1,688
9,0,359,1,1,506
9,0,360,1,1,513
9,0,361,0,0,449
9,0,362,1,1,498
9,0,363,0,0,449
9,0,364,0,0,468
9,0,365,0,0,503
9,0,366,0,1,444
9,0,367,1,1,436
9,0,368,0,0,582
9,0,369,0,0,463
9,0,370,0,0,482
9,0,371,1,1,510
9,0,372,0,0,481
9,0,373,0,0,494
9,0,374,0,0,488
9,0,375,0,0,494
9,0,376,0,0,446
9,0,377,1,1,633
9,0,378,1,1,528
9,0,379,0,0,474
9,0,380,1,1,383
9,0,381,1,1,575
9,0,382,1,1,473
9,0,383,0,0,535
9,0,384,1,1,427
9,0,385,1,1,598
9,0,386,0,0,591
9,0,387,0,0,556
9,0,388,1,1,668
9,0,389,1,1,587
9,0,390,1,1,415
9,0,391,0,0,511
9,0,392,1,1,357
9,0,393,1,1,453
9,0,394,1,1,525
9,0,395,1,1,507
9,0,396,0,0,637
9,0,397,0,0,475
9,0,398,0,0,474
9,0,399,1,1,725
9,0,400,1,1,447
9,0,401,0,0,594
9,0,402,1,1,531
9,0,403,0,0,586
9,0,404,1,1,546
9,0,405,0,0,442
9,0,406,0,0,564
9,0,407,0,0,505
9,0,408,0,0,486
9,0,409,1,1,454
9,0,410,1,1,523
9,0,411,0,0,1089
9,0,412,1,1,523
9,0,413,1,1,644
9,0,414,1,1,581
9,0,415,0,0,594
9,0,416,1,1,581
9,0,417,1,1,461
9,0,418,1,1,456
9,0,419,1,1,532
9,0,420,1,1,450
9,0,421,0,0,466
9,0,422,1,1,353
9,0,423,1,1,462
9,0,424,1,1,490
9,0,425,1,1,532
9,0,426,0,0,417
9,0,427,1,1,502
9,0,428,0,0,453
9,0,429,1,1,384
9,0,430,0,1,461
9,0,431,0,0,532
9,0,432,0,0,468
9,0,433,1,1,361
9,0,434,0,0,487
9,0,435,1,0,828
9,0,436,1,1,957
9,0,437,0,0,402
9,0,438,0,0,484
9,0,439,1,1,489
9,0,440,0,0,568
9,0,441,1,1,460
9,0,442,0,0,578
9,0,443,0,1,375
9,0,444,1,1,576
9,0,445,1,1,834
9,0,446,1,1,537
9,0,447,1,1,606
9,0,448,0,0,408
9,0,449,1,1,421
9,0,450,1,1,456
9,0,451,0,0,527
9,0,452,1,0,449
9,0,453,1,1,543
9,0,454,1,1,403
9,0,455,1,1,441
9,0,456,0,0,462
9,0,457,0,0,489
9,0,458,0,0,473
9,0,459,0,0,481
9,0,460,0,0,466
9,0,461,0,0,442
9,0,462,0,0,489
9,0,463,0,0,366
9,0,464,1,1,473
9,0,465,0,1,418
9,0,466,0,0,521
9,0,467,0,0,469
9,0,468,0,0,421
9,0,469,0,0,665
9,0,470,0,1,1946
9,0,471,0,0,541
9,0,472,0,0,447
9,0,473,1,1,418
9,0,474,1,1,471
9,0,475,0,0,607
9,0,476,0,0,486
9,0,477,1,1,481
9,0,478,0,0,503
10,1,1,1,1,639
10,1,2,1,1,669
10,1,3,0,0,731
10,1,4,0,0,701
10,1,5,1,1,747
10,1,6,1,1,701
10,1,7,1,1,491
10,1,8,0,0,692
10,1,9,1,1,468
10,1,10,1,1,829
10,1,11,0,0,548
10,1,12,0,0,708
10,1,13,1,1,542
10,1,14,1,1,538
10,1,15,1,1,475
10,1,16,0,0,588
10,1,17,1,1,710
10,1,18,1,1,504
10,1,19,1,1,513
10,1,20,0,0,606
10,1,21,0,0,524
10,1,22,0,0,502
10,1,23,1,1,587
10,1,24,1,1,455
10,1,25,0,0,481
10,1,26,0,0,589
10,1,27,1,1,677
10,1,28,1,1,720
10,1,29,1,1,488
10,1,30,1,1,514
10,1,31,1,1,455
10,1,32,0,0,594
10,1,33,1,1,498
10,1,34,1,1,441
10,1,35,1,1,490
10,1,36,0,0,597
10,1,37,1,1,441
10,1,38,1,1,535
10,1,39,1,1,561
10,1,40,1,1,539
10,1,41,1,1,472
10,1,42,1,1,473
10,1,43,1,1,559
10,1,44,0,0,634
10,1,45,0,0,447
10,1,46,0,0,519
10,1,47,0,0,499
10,1,48,0,0,500
10,1,49,0,0,502
10,1,50,1,1,593
10,1,51,0,0,483
10,1,52,0,0,553
10,1,53,1,1,432
10,1,54,0,0,577
10,1,55,1,1,507
10,1,56,1,1,498
10,1,57,1,1,629
10,1,58,0,0,704
10,1,59,1,1,589
10,1,60,1,1,487
10,1,61,1,1,448
10,1,62,1,1,503
10,1,63,0,0,616
10,1,64,0,0,483
10,1,65,1,1,493
10,1,66,1,1,455
10,1,67,1,1,719
10,1,68,1,1,476
10,1,69,0,0,607
10,1,70,0,0,769
10,1,71,1,1,518
10,1,72,0,0,470
10,1,73,0,0,616
10,1,74,0,0,558
10,1,75,1,1,592
10,1,76,1,1,578
10,1,77,0,0,661
10,1,78,1,1,541
10,1,79,1,1,544
10,1,80,0,0,529
10,1,81,0,0,683
10,1,82,0,0,544
10,1,83,0,0,596
10,1,84,0,0,560
10,1,85,1,1,474
10,1,86,1,1,628
10,1,87,0,0,572
10,1,88,0,0,720
10,1,89,1,1,827
10,1,90,1,1,541
10,1,91,0,0,490
10,1,92,1,1,509
10,1,93,1,1,624
10,1,94,1,1,577
10,1,95,0,0,673
10,1,96,1,1,536
10,1,97,0,0,623
10,1,98,0,0,705
10,1,99,0,0,673
10,1,100,1,1,426
10,1,101,0,0,484
10,1,102,0,0,497
10,1,103,1,1,565
10,1,104,1,1,620
10,1,105,1,1,472
10,1,106,1,1,486
10,1,107,1,1,531
10,1,108,0,0,617
10,1,109,0,0,646
10,1,110,1,1,573
10,1,111,0,0,506
10,1,112,1,1,461
10,1,113,0,0,589
10,1,114,0,0,534
10,1,115,0,0,532
10,1,116,0,0,527
10,1,117,0,0,566
10,1,118,1,1,530
10,1,119,1,1,585
10,1,120,0,0,458
10,1,121,0,0,637
10,1,122,1,1,502
10,1,123,1,1,617
10,1,124,0,0,443
10,1,125,1,1,428
10,1,126,0,0,436
10,1,127,1,1,682
10,1,128,1,1,557
10,1,129,1,1,515
10,1,130,1,1,493
10,1,131,1,1,437
10,1,132,1,1,516
10,1,133,1,1,426
10,1,134,1,1,585
10,1,135,1,1,449
10,1,136,1,1,537
10,1,137,0,0,458
10,1,138,0,0,434
10,1,139,0,0,448
10,1,140,0,0,425
10,1,141,1,1,573
10,1,142,0,0,568
10,1,143,0,0,466
10,1,144,0,0,508
10,1,145,0,0,471
10,1,146,1,1,528
10,1,147,1,1,478
10,1,148,0,0,471
10,1,149,1,1,505
10,1,150,1,1,472
10,1,151,0,0,569
10,1,152,1,1,571
10,1,153,1,0,455
10,1,154,1,1,595
10,1,155,1,1,746
10,1,156,1,1,551
10,1,157,1,1,519
10,1,158,1,1,497
10,1,159,0,0,711
10,1,160,0,0,514
10,1,161,0,0,681
10,1,162,1,1,515
10,1,163,0,0,634
10,1,164,1,1,615
10,1,165,1,1,663
10,1,166,1,1,574
10,1,167,0,0,449
10,1,168,1,1,625
10,1,169,1,1,466
10,1,170,0,0,560
10,1,171,0,0,626
10,1,172,1,1,577
10,1,173,1,1,567
10,1,174,0,0,670
10,1,175,0,0,635
10,1,176,1,1,477
10,1,177,1,1,664
10,1,178,1,1,560
10,1,179,0,0,548
10,1,180,0,0,511
10,1,181,0,0,507
10,1,182,0,0,525
10,1,183,0,0,624
10,1,184,0,0,676
10,1,185,1,1,642
10,1,186,0,0,504
10,1,187,0,0,541
10,1,188,0,0,762
10,1,189,1,1,564
10,1,190,0,0,520
10,1,191,0,0,615
10,1,192,1,1,569
10,1,193,0,0,513
10,1,194,1,1,556
10,1,195,1,1,550
10,1,196,1,0,489
10,1,197,1,1,666
10,1,198,1,1,437
10,1,199,1,1,438
10,1,200,1,1,491
10,1,201,1,1,762
10,1,202,0,0,493
10,1,203,0,0,595
10,1,204,1,1,642
10,1,205,0,0,448
10,1,206,0,0,646
10,1,207,1,1,570
10,1,208,0,0,594
10,1,209,0,0,630
10,1,210,0,0,530
10,1,211,1,1,465
10,1,212,1,1,528
10,1,213,0,0,426
10,1,214,0,0,645
10,1,215,1,1,542
10,1,216,0,0,640
10,1,217,1,1,550
10,1,218,0,0,525
10,1,219,0,0,519
10,1,220,1,1,532
10,1,221,1,1,507
10,1,222,0,0,526
10,1,223,0,0,522
10,1,224,1,1,456
10,1,225,0,0,568
10,1,226,1,0,409
10,1,227,0,0,605
10,1,228,0,0,600
10,1,229,0,0,670
10,1,230,0,0,530
10,1,231,0,0,578
10,1,232,0,0,629
10,1,233,0,0,553
10,1,234,1,1,434
10,1,235,1,1,473
10,1,236,0,0,506
10,1,237,1,1,528
10,1,238,0,0,491
10,1,239,0,0,586
10,1,240,1,1,510
10,1,241,1,1,541
10,1,242,1,1,517
10,1,243,0,0,538
10,1,244,1,1,506
10,1,245,0,0,599
10,1,246,0,0,719
10,1,247,0,0,515
10,1,248,0,0,558
10,1,249,1,1,485
10,1,250,0,0,539
10,1,251,1,1,415
10,1,252,0,0,507
10,1,253,1,1,395
10,1,254,0,0,458
10,1,255,1,1,389
10,1,256,1,1,523
10,1,257,1,1,645
10,1,258,1,1,593
10,1,259,1,1,555
10,1,260,1,1,459
10,1,261,0,0,542
10,1,262,1,1,481
10,1,263,1,1,554
10,1,264,1,1,509
10,1,265,1,1,507
10,1,266,0,0,662
10,1,267,0,0,510
10,1,268,1,1,585
10,1,269,0,0,578
10,1,270,0,0,563
10,1,271,0,0,676
10,1,272,1,1,508
10,1,273,1,1,529
10,1,274,1,1,504
10,1,275,1,1,559
10,1,276,1,1,490
10,1,277,0,0,470
10,1,278,0,0,607
10,1,279,1,1,466
10,1,280,1,1,896
10,1,281,1,1,441
10,1,282,1,1,426
10,1,283,0,0,553
10,1,284,1,1,620
10,1,285,0,0,618
10,1,286,1,1,584
10,1,287,1,1,487
10,1,288,1,1,422
10,1,289,1,1,463
10,1,290,1,1,477
10,1,291,0,0,458
10,1,292,1,1,447
10,1,293,1,1,550
10,1,294,0,0,714
10,1,295,0,0,639
10,1,296,1,1,432
10,1,297,1,1,484
10,1,298,1,1,456
10,1,299,1,1,538
10,1,300,1,1,484
10,1,301,0,0,554
10,1,302,1,1,505
10,1,303,0,0,658
10,1,304,1,1,474
10,1,305,1,1,552
10,1,306,1,1,550
10,1,307,1,1,462
10,1,308,0,0,680
10,1,309,1,1,534
10,1,310,0,0,461
10,1,311,0,0,589
10,1,312,1,1,629
10,1,313,0,0,636
10,1,314,0,0,533
10,1,315,1,1,620
10,1,316,1,1,645
10,1,317,1,1,516
10,1,318,1,1,620
10,1,319,1,1,501
10,1,320,1,1,523
10,1,321,0,0,647
10,1,322,0,0,606
10,1,323,1,1,577
10,1,324,0,0,617
10,1,325,1,1,551
10,1,326,1,1,833
10,1,327,0,0,542
10,1,328,0,0,556
10,1,329,1,1,513
10,1,330,1,1,517
10,1,331,0,0,633
10,1,332,1,1,461
10,1,333,0,0,575
10,1,334,0,0,627
10,1,335,0,0,723
10,1,336,1,1,510
10,1,337,0,0,560
10,1,338,1,1,520
10,1,339,1,1,477
10,1,340,0,0,595
10,1,341,0,0,584
10,1,342,1,1,568
10,1,343,0,0,613
10,1,344,1,1,605
10,1,345,1,1,570
10,1,346,0,0,570
10,1,347,0,0,662
10,1,348,0,0,572
10,1,349,0,0,550
10,1,350,1,1,564
10,1,351,1,1,508
10,1,352,1,1,490
10,1,353,1,1,548
10,1,354,0,0,443
10,1,355,1,1,524
10,1,356,1,1,460
10,1,357,1,1,541
10,1,358,1,1,518
10,1,359,0,0,533
10,1,360,1,1,538
10,1,361,0,0,504
10,1,362,1,1,522
10,1,363,1,1,565
10,1,364,1,1,469
10,1,365,1,1,495
10,1,366,1,1,639
10,1,367,0,0,476
10,1,368,0,1,437
10,1,369,0,0,545
10,1,370,1,1,492
10,1,371,0,0,541
10,1,372,0,0,571
10,1,373,0,0,599
10,1,374,0,0,534
10,1,375,1,1,523
10,1,376,0,0,572
10,1,377,0,0,576
10,1,378,0,0,555
10,1,379,1,1,458
10,1,380,0,0,512
10,1,381,1,1,454
10,1,382,0,0,479
10,1,383,1,1,506
10,1,384,1,1,631
10,1,385,0,0,548
10,1,386,1,1,475
10,1,387,1,1,595
10,1,388,0,0,593
10,1,389,1,1,608
10,1,390,0,0,507
10,1,391,1,1,468
10,1,392,1,1,532
10,1,393,0,0,474
10,1,394,1,1,507
10,1,395,1,1,502
10,1,396,1,1,473
10,1,397,0,0,594
10,1,398,1,1,526
10,1,399,0,0,504
10,1,400,1,1,632
10,1,401,1,1,532
10,1,402,0,0,455
10,1,403,1,1,596
10,1,404,1,1,544
10,1,405,0,0,546
10,1,406,0,0,456
10,1,407,1,1,491
10,1,408,0,0,530
10,1,409,0,0,647
10,1,410,1,1,625
10,1,411,0,0,564
10,1,412,0,0,551
10,1,413,1,1,588
10,1,414,0,0,540
10,1,415,1,1,558
10,1,416,1,1,533
10,1,417,0,0,600
10,1,418,1,1,414
10,1,419,1,1,466
10,1,420,1,1,520
10,1,421,1,1,518
10,1,422,1,1,474
10,1,423,0,0,476
10,1,424,1,1,427
10,1,425,0,1,503
10,1,426,1,1,541
10,1,427,0,0,546
10,1,428,1,1,691
10,1,429,1,1,1140
10,1,430,0,0,606
10,1,431,1,1,487
10,1,432,1,1,567
10,1,433,0,0,504
10,1,434,1,1,493
10,1,435,0,0,553
10,1,436,0,0,561
10,1,437,1,1,470
10,1,438,0,0,511
10,1,439,0,0,588
10,1,440,1,1,514
10,1,441,0,0,564
10,1,442,0,0,522
10,1,443,1,1,433
10,1,444,0,0,672
10,1,445,0,0,607
10,1,446,1,1,463
10,1,447,0,0,483
10,1,448,0,0,534
10,1,449,1,1,573
10,1,450,0,0,587
10,1,451,1,1,568
10,1,452,1,1,667
10,1,453,1,1,616
10,1,454,1,1,523
10,1,455,1,1,604
10,1,456,0,0,506
10,1,457,1,1,542
10,1,458,0,0,655
10,1,459,1,1,608
10,1,460,0,0,614
10,1,461,1,1,496
10,1,462,1,1,551
10,1,463,1,1,512
10,1,464,0,0,521
10,1,465,1,1,600
10,1,466,0,0,611
10,1,467,0,0,626
10,1,468,1,1,544
10,1,469,1,1,518
10,1,470,1,1,563
10,1,471,0,0,656
10,1,472,1,1,568
10,1,473,1,1,598
10,1,474,1,1,537
10,1,475,1,1,582
10,1,476,1,1,548
10,1,477,1,1,583
10,1,478,0,0,639
10,1,479,1,1,539
10,1,480,0,0,640
11,0,1,1,1,831
11,0,2,1,1,600
11,0,3,1,1,640
11,0,4,1,1,455
11,0,5,1,1,487
11,0,6,0,0,539
11,0,7,1,1,578
11,0,8,0,0,701
11,0,9,0,0,720
11,0,10,0,0,669
11,0,11,1,1,626
11,0,12,1,1,870
11,0,13,0,0,512
11,0,14,1,1,413
11,0,15,0,0,541
11,0,16,1,1,574
11,0,17,0,0,535
11,0,18,1,1,432
11,0,19,1,1,568
11,0,20,1,1,574
11,0,21,1,1,573
11,0,22,1,1,524
11,0,23,0,0,767
11,0,24,1,1,724
11,0,25,1,1,484
11,0,26,1,1,503
11,0,27,0,0,582
11,0,28,0,0,616
11,0,29,1,1,638
11,0,30,0,0,443
11,0,31,0,0,607
11,0,32,0,0,609
11,0,33,1,1,570
11,0,34,0,0,606
11,0,35,1,1,575
11,0,36,0,0,803
11,0,37,0,0,510
11,0,38,0,0,548
11,0,39,1,1,521
11,0,40,0,0,893
11,0,41,1,1,568
11,0,42,0,0,672
11,0,43,1,1,700
11,0,44,0,0,670
11,0,45,1,1,478
11,0,46,0,0,770
11,0,47,0,0,628
11,0,48,0,0,653
11,0,49,0,0,626
11,0,50,1,1,698
11,0,51,0,0,483
11,0,52,0,0,625
11,0,53,0,0,678
11,0,54,1,1,656
11,0,55,1,1,601
11,0,56,1,1,454
11,0,57,0,0,674
11,0,58,1,1,662
11,0,59,0,0,576
11,0,60,0,0,894
11,0,61,1,1,563
11,0,62,1,1,443
11,0,63,0,0,566
11,0,64,1,1,604
11,0,65,0,0,477
11,0,66,0,0,816
11,0,67,0,0,487
11,0,68,1,1,427
11,0,69,0,0,436
11,0,70,1,1,622
11,0,71,1,0,667
11,0,72,1,1,688
11,0,73,0,0,758
11,0,74,0,0,718
11,0,75,1,1,1462
11,0,76,0,0,511
11,0,77,0,0,696
11,0,78,0,0,614
11,0,79,0,0,642
11,0,80,1,1,1187
11,0,81,0,0,513
11,0,82,1,1,609
11,0,83,1,1,573
11,0,84,1,1,630
11,0,85,0,0,838
11,0,86,0,0,500
11,0,87,1,1,585
11,0,88,0,0,863
11,0,89,0,0,564
11,0,90,1,1,681
11,0,91,0,0,642
11,0,92,1,1,513
11,0,93,1,1,690
11,0,94,1,1,726
11,0,95,1,1,751
11,0,96,1,1,441
11,0,97,1,1,674
11,0,98,1,1,612
11,0,99,1,1,670
11,0,100,1,1,538
11,0,101,1,1,675
11,0,102,0,0,673
11,0,103,1,1,912
11,0,104,0,0,497
11,0,105,1,1,627
11,0,106,1,1,1020
11,0,107,0,0,547
11,0,108,0,0,480
11,0,109,0,0,631
11,0,110,0,0,651
11,0,111,1,1,687
11,0,112,0,0,696
11,0,113,0,0,714
11,0,114,1,1,565
11,0,115,0,0,808
11,0,116,0,0,620
11,0,117,1,1,607
11,0,118,0,0,553
11,0,119,1,1,694
11,0,120,1,1,651
11,0,121,0,0,563
11,0,122,0,0,625
11,0,123,1,1,620
11,0,124,0,0,627
11,0,125,1,1,608
11,0,126,1,1,604
11,0,127,0,0,929
11,0,128,0,0,595
11,0,129,1,1,488
11,0,130,1,1,643
11,0,131,0,0,431
11,0,132,0,0,567
11,0,133,1,1,687
11,0,134,1,1,684
11,0,135,0,0,635
11,0,136,0,0,738
11,0,137,1,1,670
11,0,138,1,1,651
11,0,139,0,0,654
11,0,140,0,0,720
11,0,141,1,1,414
11,0,142,1,1,509
11,0,143,1,1,615
11,0,144,0,0,450
11,0,145,1,1,702
11,0,146,0,0,493
11,0,147,1,1,618
11,0,148,1,1,646
11,0,149,1,1,749
11,0,150,1,1,552
11,0,151,1,1,567
11,0,152,1,1,607
11,0,153,1,1,774
11,0,154,1,1,711
11,0,155,1,1,547
11,0,156,1,1,914
11,0,157,0,0,763
11,0,158,0,0,703
11,0,159,0,0,758
11,0,160,1,1,633
11,0,161,0,0,739
11,0,162,0,0,657
11,0,163,1,1,644
11,0,164,1,1,663
11,0,165,0,0,651
11,0,166,0,0,690
11,0,167,0,0,534
11,0,168,1,1,684
11,0,169,1,1,705
11,0,170,0,0,738
11,0,171,1,1,619
11,0,172,1,1,754
11,0,173,0,0,652
11,0,174,0,0,628
11,0,175,1,1,605
11,0,176,1,1,751
11,0,177,1,1,561
11,0,178,0,0,928
11,0,179,0,0,534
11,0,180,0,0,744
11,0,181,0,0,492
11,0,182,0,0,558
11,0,183,1,1,439
11,0,184,1,1,519
11,0,185,1,1,627
11,0,186,1,1,582
11,0,187,1,1,479
11,0,188,0,0,427
11,0,189,0,0,675
11,0,190,0,0,566
11,0,191,0,0,512
11,0,192,0,0,544
11,0,193,0,0,438
11,0,194,0,0,520
11,0,195,1,1,543
11,0,196,1,1,737
11,0,197,0,0,752
11,0,198,1,1,651
11,0,199,0,0,828
11,0,200,1,1,644
11,0,201,0,0,540
11,0,202,1,1,663
11,0,203,1,1,765
11,0,204,0,0,656
11,0,205,1,1,839
11,0,206,1,1,760
11,0,207,1,1,603
11,0,208,0,0,667
11,0,209,0,0,643
11,0,210,0,0,544
11,0,211,0,0,583
11,0,212,0,0,580
11,0,213,0,0,676
11,0,214,0,0,563
11,0,215,1,1,593
11,0,216,0,0,768
11,0,217,1,1,608
11,0,218,1,1,637
11,0,219,0,0,692
11,0,220,0,0,762
11,0,221,1,1,416
11,0,222,0,0,736
11,0,223,1,1,485
11,0,224,0,0,464
11,0,225,0,0,574
11,0,226,0,0,740
11,0,227,0,0,886
11,0,228,0,0,569
11,0,229,0,0,501
11,0,230,0,0,542
11,0,231,0,0,564
11,0,232,0,0,501
11,0,233,0,0,638
11,0,234,1,1,743
11,0,235,1,1,655
11,0,236,0,0,621
11,0,237,0,0,664
11,0,238,1,1,810
11,0,239,0,0,543
11,0,240,0,0,556
11,0,241,0,0,599
11,0,242,0,0,526
11,0,243,0,0,511
11,0,244,1,1,446
11,0,245,0,0,481
11,0,246,1,1,426
11,0,247,0,0,636
11,0,248,0,0,567
11,0,249,0,0,493
11,0,250,1,1,423
11,0,251,1,1,978
11,0,252,0,0,449
11,0,253,1,1,601
11,0,254,0,0,423
11,0,255,1,1,554
11,0,256,0,0,488
11,0,257,1,1,568
11,0,258,1,1,581
11,0,259,1,1,565
11,0,260,0,0,704
11,0,261,0,0,732
11,0,262,0,0,604
11,0,263,0,0,936
11,0,264,0,0,491
11,0,265,1,1,697
11,0,266,1,1,587
11,0,267,0,0,484
11,0,268,1,1,376
11,0,269,1,1,608
11,0,270,1,1,543
11,0,271,0,0,630
11,0,272,1,1,674
11,0,273,1,1,657
11,0,274,1,1,536
11,0,275,0,0,488
11,0,276,1,1,824
11,0,277,1,1,807
11,0,278,0,0,481
11,0,279,1,1,685
11,0,280,1,1,571
11,0,281,1,1,648
11,0,282,1,1,519
11,0,283,0,0,440
11,0,284,1,1,649
11,0,285,1,1,606
11,0,286,1,1,677
11,0,287,0,0,633
11,0,288,0,0,669
11,0,289,0,0,1085
11,0,290,0,0,624
11,0,291,1,1,600
11,0,292,1,1,585
11,0,293,1,1,577
11,0,294,1,1,676
11,0,295,1,1,622
11,0,296,0,0,805
11,0,297,1,1,710
11,0,298,0,0,658
11,0,299,0,0,673
11,0,300,1,1,622
11,0,301,0,0,458
11,0,302,1,1,462
11,0,303,0,0,539
11,0,304,0,0,523
11,0,305,0,0,534
11,0,306,1,1,604
11,0,307,0,0,523
11,0,308,1,1,371
11,0,309,0,0,376
11,0,310,1,1,671
11,0,311,0,0,389
11,0,312,0,0,419
11,0,313,1,1,554
11,0,314,1,1,778
11,0,315,1,1,730
11,0,316,1,1,677
11,0,317,0,0,420
11,0,318,1,1,1067
11,0,319,1,1,592
11,0,320,1,1,523
11,0,321,1,1,571
11,0,322,1,1,641
11,0,323,0,0,384
11,0,324,1,1,631
11,0,325,1,1,515
11,0,326,1,1,541
11,0,327,1,1,524
11,0,328,1,1,506
11,0,329,0,0,585
11,0,330,1,1,606
11,0,331,0,0,618
11,0,332,1,1,767
11,0,333,0,0,508
11,0,334,0,1,445
11,0,335,0,0,755
11,0,336,0,0,594
11,0,337,1,1,615
11,0,338,1,1,738
11,0,339,0,0,729
11,0,340,1,1,763
11,0,341,1,1,749
11,0,342,1,1,679
11,0,343,1,1,660
11,0,344,1,1,658
11,0,345,1,1,610
11,0,346,0,0,765
11,0,347,0,0,681
11,0,348,0,0,690
11,0,349,1,1,644
11,0,350,0,0,703
11,0,351,0,0,733
11,0,352,0,0,756
11,0,353,1,1,561
11,0,354,1,1,589
11,0,355,1,1,629
11,0,356,0,0,628
11,0,357,0,0,630
11,0,358,0,0,724
11,0,359,1,1,710
11,0,360,0,0,689
11,0,361,0,0,558
11,0,362,1,1,523
11,0,363,1,1,538
11,0,364,1,1,755
11,0,365,0,0,471
11,0,366,1,1,720
11,0,367,0,0,909
11,0,368,1,1,656
11,0,369,0,0,787
11,0,370,0,0,714
11,0,371,1,1,694
11,0,372,1,1,636
11,0,373,1,1,769
11,0,374,0,0,432
11,0,375,1,1,528
11,0,376,0,0,689
11,0,377,0,0,749
11,0,378,1,1,588
11,0,379,1,1,697
11,0,380,1,1,524
11,0,381,0,0,665
11,0,382,1,1,582
11,0,383,0,0,949
11,0,384,0,0,584
11,0,385,0,0,680
11,0,386,1,1,635
11,0,387,0,0,733
11,0,388,1,1,767
11,0,389,0,0,629
11,0,390,1,1,819
11,0,391,0,0,803
11,0,392,1,1,663
11,0,393,1,1,810
11,0,394,0,0,684
11,0,395,0,0,702
11,0,396,0,0,739
11,0,397,0,0,1003
11,0,398,1,1,409
11,0,399,1,1,625
11,0,400,1,1,622
11,0,401,0,0,455
11,0,402,0,0,691
11,0,403,0,0,713
11,0,404,0,0,668
11,0,405,0,0,664
11,0,406,1,1,477
11,0,407,1,1,693
11,0,408,0,0,654
11,0,409,1,1,713
11,0,410,1,1,557
11,0,411,1,1,573
11,0,412,0,0,650
11,0,413,0,1,503
11,0,414,0,0,566
11,0,415,1,1,920
11,0,416,0,0,459
11,0,417,1,1,585
11,0,418,1,1,591
11,0,419,0,0,658
11,0,420,0,0,527
11,0,421,0,0,520
11,0,422,0,0,545
11,0,423,0,0,641
11,0,424,1,1,619
11,0,425,0,0,755
11,0,426,1,1,465
11,0,427,1,1,732
11,0,428,0,0,685
11,0,429,0,0,655
11,0,430,1,1,411
11,0,431,1,1,768
11,0,432,1,1,615
11,0,433,1,1,546
11,0,434,1,1,694
11,0,435,1,1,541
11,0,436,0,0,660
11,0,437,0,0,540
11,0,438,0,0,541
11,0,439,1,1,448
11,0,440,0,0,780
11,0,441,1,1,545
11,0,442,0,0,718
11,0,443,1,1,458
11,0,444,0,0,593
11,0,445,0,0,633
11,0,446,0,0,677
11,0,447,0,0,645
11,0,448,1,1,490
11,0,449,0,0,813
11,0,450,1,1,684
11,0,451,0,0,577
11,0,452,1,1,727
11,0,453,0,0,684
11,0,454,1,1,607
11,0,455,1,1,571
11,0,456,0,0,686
11,0,457,1,1,867
11,0,458,1,1,763
11,0,459,0,0,511
11,0,460,0,0,542
11,0,461,0,0,661
11,0,462,1,1,535
11,0,463,1,1,758
11,0,464,0,0,742
11,0,465,0,0,741
11,0,466,0,0,692
11,0,467,0,0,736
11,0,468,0,0,689
11,0,469,0,0,668
11,0,470,1,1,742
11,0,471,1,1,671
11,0,472,0,0,557
11,0,473,1,1,468
11,0,474,1,1,680
11,0,475,1,1,616
11,0,476,1,1,717
11,0,477,1,1,546
11,0,478,1,1,594
11,0,479,0,0,754
11,0,480,1,1,734
12,1,1,0,0,699
12,1,2,0,0,583
12,1,3,0,0,571
12,1,4,1,1,508
12,1,5,0,0,653
12,1,6,1,1,458
12,1,7,0,0,536
12,1,8,0,0,510
12,1,9,1,1,575
12,1,10,1,1,593
12,1,11,1,1,555
12,1,12,0,0,668
12,1,13,1,1,506
12,1,14,0,0,511
12,1,15,0,0,502
12,1,16,0,0,537
12,1,17,0,0,531
12,1,18,0,0,511
12,1,19,0,0,591
12,1,20,0,0,525
12,1,21,0,0,501
12,1,22,0,0,555
12,1,23,0,0,491
12,1,24,0,0,498
12,1,25,1,1,488
12,1,26,1,1,578
12,1,27,0,0,502
12,1,28,0,0,529
12,1,29,1,1,521
12,1,30,0,0,482
12,1,31,0,0,540
12,1,32,0,0,689
12,1,33,0,0,470
12,1,34,0,0,542
12,1,35,1,1,430
12,1,36,0,0,611
12,1,37,1,1,509
12,1,38,1,1,498
12,1,39,1,1,589
12,1,40,1,1,535
12,1,41,0,0,496
12,1,42,1,1,537
12,1,43,1,1,551
12,1,44,1,1,904
12,1,45,0,0,475
12,1,46,0,0,463
12,1,47,1,1,406
12,1,48,0,0,513
12,1,49,1,1,521
12,1,50,1,1,511
12,1,51,1,1,488
12,1,52,1,1,449
12,1,53,1,1,508
12,1,54,0,0,620
12,1,55,1,1,425
12,1,56,0,0,544
12,1,57,0,0,523
12,1,58,0,0,508
12,1,59,0,0,509
12,1,60,0,0,435
12,1,61,1,1,561
12,1,62,0,0,543
12,1,63,0,0,488
12,1,64,1,1,455
12,1,65,0,0,402
12,1,66,1,1,515
12,1,67,1,1,492
12,1,68,0,0,448
12,1,69,1,1,407
12,1,70,1,1,518
12,1,71,0,0,551
12,1,72,1,1,577
12,1,73,1,1,554
12,1,74,0,0,445
12,1,75,0,0,493
12,1,76,1,1,525
12,1,77,1,1,544
12,1,78,1,1,502
12,1,79,1,1,524
12,1,80,0,0,496
12,1,81,1,1,462
12,1,82,1,1,505
12,1,83,0,0,467
12,1,84,1,1,461
12,1,85,1,1,424
12,1,86,0,0,421
12,1,87,0,0,475
12,1,88,0,0,474
12,1,89,0,0,493
12,1,90,1,1,464
12,1,91,1,1,521
12,1,92,1,1,624
12,1,93,1,1,605
12,1,94,1,1,489
12,1,95,0,0,597
12,1,96,1,1,514
12,1,97,0,0,417
12,1,98,1,1,561
12,1,99,1,1,486
12,1,100,0,1,495
12,1,101,0,0,615
12,1,102,1,1,525
12,1,103,0,0,534
12,1,104,1,1,487
12,1,105,1,1,494
12,1,106,0,0,553
12,1,107,0,0,628
12,1,108,0,0,565
12,1,109,1,1,628
12,1,110,1,1,662
12,1,111,1,1,408
12,1,112,1,1,573
12,1,113,1,1,497
12,1,114,1,1,450
12,1,115,1,1,480
12,1,116,1,1,501
12,1,117,0,0,537
12,1,118,1,1,531
12,1,119,0,0,493
12,1,120,1,1,440
12,1,121,0,0,548
12,1,122,1,1,559
12,1,123,1,0,427
12,1,124,1,1,557
12,1,125,1,1,494
12,1,126,0,0,674
12,1,127,1,1,568
12,1,128,0,0,551
12,1,129,0,0,440
12,1,130,0,0,555
12,1,131,1,1,544
12,1,132,1,1,491
12,1,133,1,1,523
12,1,134,0,0,578
12,1,135,0,0,559
12,1,136,0,0,602
12,1,137,1,1,630
12,1,138,1,1,547
12,1,139,0,0,577
12,1,140,1,1,576
12,1,141,0,0,459
12,1,142,0,0,478
12,1,143,0,0,617
12,1,144,0,0,626
12,1,145,0,0,526
12,1,146,1,1,448
12,1,147,0,0,622
12,1,148,0,0,520
12,1,149,1,1,479
12,1,150,0,0,474
12,1,151,1,1,507
12,1,152,1,1,522
12,1,153,0,0,585
12,1,154,1,1,501
12,1,155,1,1,471
12,1,156,1,1,515
12,1,157,0,0,560
12,1,158,0,0,510
12,1,159,0,0,551
12,1,160,1,1,558
12,1,161,1,1,642
12,1,162,0,0,489
12,1,163,0,0,536
12,1,164,0,0,624
12,1,165,0,0,485
12,1,166,1,1,733
12,1,167,0,0,530
12,1,168,0,0,519
12,1,169,1,1,514
12,1,170,0,0,519
12,1,171,0,0,485
12,1,172,0,0,512
12,1,173,0,0,519
12,1,174,0,0,514
12,1,175,0,0,477
12,1,176,0,0,527
12,1,177,1,1,447
12,1,178,1,1,546
12,1,179,1,1,528
12,1,180,0,0,514
12,1,181,0,0,511
12,1,182,1,1,565
12,1,183,1,1,488
12,1,184,0,0,554
12,1,185,0,0,539
12,1,186,0,0,479
12,1,187,1,1,460
12,1,188,0,0,490
12,1,189,1,1,468
12,1,190,1,1,494
12,1,191,1,1,483
12,1,192,0,0,477
12,1,193,0,0,545
12,1,194,0,0,534
12,1,195,0,0,523
12,1,196,0,0,474
12,1,197,1,1,467
12,1,198,1,1,573
12,1,199,1,0,438
12,1,200,0,0,583
12,1,201,1,1,500
12,1,202,1,1,548
12,1,203,1,1,536
12,1,204,1,1,524
12,1,205,0,0,570
12,1,206,1,1,496
12,1,207,1,1,544
12,1,208,1,1,577
12,1,209,0,0,602
12,1,210,0,0,576
12,1,211,0,0,571
12,1,212,1,1,552
12,1,213,0,0,606
12,1,214,1,1,524
12,1,215,1,1,565
12,1,216,0,0,703
12,1,217,0,0,525
12,1,218,1,1,434
12,1,219,0,0,525
12,1,220,0,0,595
12,1,221,1,1,436
12,1,222,1,1,464
12,1,223,0,0,605
12,1,224,1,1,444
12,1,225,0,0,453
12,1,226,0,0,505
12,1,227,0,0,549
12,1,228,0,0,552
12,1,229,1,1,471
12,1,230,1,1,599
12,1,231,1,1,507
12,1,232,1,1,410
12,1,233,0,0,543
12,1,234,0,0,506
12,1,235,1,1,534
12,1,236,0,0,553
12,1,237,1,1,447
12,1,238,1,1,504
12,1,239,1,1,502
12,1,240,1,1,481
12,1,241,0,0,480
12,1,242,0,0,528
12,1,243,1,1,435
12,1,244,0,0,528
12,1,245,1,1,501
12,1,246,0,0,556
12,1,247,0,0,507
12,1,248,1,1,399
12,1,249,1,1,463
12,1,250,0,0,512
12,1,251,0,0,566
12,1,252,0,0,539
12,1,253,1,1,487
12,1,254,0,0,501
12,1,255,0,0,608
12,1,256,0,0,599
12,1,257,0,0,514
12,1,258,0,0,517
12,1,259,1,1,462
12,1,260,1,1,523
12,1,261,0,0,504
12,1,262,0,0,464
12,1,263,1,1,405
12,1,264,1,1,434
12,1,265,0,0,483
12,1,266,1,1,521
12,1,267,0,0,424
12,1,268,1,1,516
12,1,269,0,0,507
12,1,270,0,0,523
12,1,271,0,0,486
12,1,272,1,1,447
12,1,273,0,0,523
12,1,274,0,0,561
12,1,275,1,1,440
12,1,276,0,0,482
12,1,277,0,0,597
12,1,278,0,0,495
12,1,279,0,0,581
12,1,280,0,0,508
12,1,281,1,1,517
12,1,282,0,0,495
12,1,283,0,0,468
12,1,284,0,0,524
12,1,285,0,0,438
12,1,286,0,0,439
12,1,287,1,1,501
12,1,288,1,1,469
12,1,289,0,0,449
12,1,290,0,0,517
12,1,291,0,0,516
12,1,292,0,0,565
12,1,293,0,0,620
12,1,294,1,1,527
12,1,295,0,0,510
12,1,296,0,0,516
12,1,297,1,1,442
12,1,298,1,1,486
12,1,299,1,1,512
12,1,300,1,1,505
12,1,301,1,1,456
12,1,302,0,0,510
12,1,303,1,1,390
12,1,304,1,1,506
12,1,305,0,0,520
12,1,306,1,1,538
12,1,307,0,0,592
12,1,308,0,0,544
12,1,309,0,0,525
12,1,310,1,1,486
12,1,311,1,1,469
12,1,312,0,0,487
12,1,313,1,1,559
12,1,314,1,1,538
12,1,315,0,0,572
12,1,316,1,1,485
12,1,317,0,0,493
12,1,318,1,1,450
12,1,319,0,0,449
12,1,320,1,1,553
12,1,321,1,1,568
12,1,322,1,1,509
12,1,323,1,1,461
12,1,324,0,0,461
12,1,325,0,0,417
12,1,326,0,0,441
12,1,327,0,0,399
12,1,328,1,1,374
12,1,329,0,0,409
12,1,330,1,1,354
12,1,331,0,0,399
12,1,332,1,1,435
12,1,333,0,0,360
12,1,334,0,0,426
12,1,335,0,0,457
12,1,336,1,1,400
12,1,337,1,1,487
12,1,338,1,1,447
12,1,339,1,1,538
12,1,340,1,1,494
12,1,341,1,1,471
12,1,342,0,0,536
12,1,343,1,1,465
12,1,344,0,0,452
12,1,345,0,0,450
12,1,346,0,0,443
12,1,347,0,0,425
12,1,348,0,0,444
12,1,349,0,0,482
12,1,350,1,1,468
12,1,351,0,0,486
12,1,352,0,0,443
12,1,353,0,0,475
12,1,354,0,0,459
12,1,355,1,1,402
12,1,356,1,1,474
12,1,357,0,0,401
12,1,358,1,1,376
12,1,359,0,0,426
12,1,360,1,1,352
12,1,361,0,0,416
12,1,362,0,0,422
12,1,363,0,0,401
12,1,364,0,0,467
12,1,365,0,0,441
12,1,366,0,0,495
12,1,367,0,0,467
12,1,368,1,1,492
12,1,369,1,1,472
12,1,370,1,1,466
12,1,371,1,1,394
12,1,372,0,0,423
12,1,373,1,1,468
12,1,374,1,1,514
12,1,375,1,1,428
12,1,376,1,1,421
12,1,377,0,0,547
12,1,378,0,0,555
12,1,379,0,0,437
12,1,380,0,0,413
12,1,381,1,1,446
12,1,382,1,1,465
12,1,383,1,1,430
12,1,384,0,0,489
12,1,385,1,1,645
12,1,386,1,1,459
12,1,387,1,1,643
12,1,388,1,1,425
12,1,389,1,1,438
12,1,390,1,1,405
12,1,391,1,1,487
12,1,392,0,0,577
12,1,393,0,0,536
12,1,394,0,0,488
12,1,395,0,0,529
12,1,396,0,0,610
12,1,397,1,1,446
12,1,398,1,1,460
12,1,399,1,1,440
12,1,400,0,0,491
12,1,401,0,0,463
12,1,402,1,1,432
12,1,403,1,1,473
12,1,404,0,0,517
12,1,405,1,1,638
12,1,406,0,0,459
12,1,407,0,0,451
12,1,408,0,0,529
12,1,409,0,0,552
12,1,410,1,1,428
12,1,411,1,1,489
12,1,412,1,1,460
12,1,413,0,0,610
12,1,414,0,0,462
12,1,415,1,1,438
12,1,416,1,1,691
12,1,417,1,1,476
12,1,418,1,1,441
12,1,419,1,1,441
12,1,420,1,1,411
12,1,421,0,0,526
12,1,422,0,0,417
12,1,423,0,0,482
12,1,424,0,0,536
12,1,425,1,1,460
12,1,426,1,1,476
12,1,427,0,0,481
12,1,428,1,1,545
12,1,429,0,0,469
12,1,430,0,0,451
12,1,431,0,0,454
12,1,432,1,1,370
12,1,433,0,0,446
12,1,434,0,0,467
12,1,435,0,0,437
12,1,436,0,0,432
12,1,437,0,0,438
12,1,438,1,1,524
12,1,439,1,1,480
12,1,440,0,0,501
12,1,441,0,0,645
12,1,442,0,0,507
12,1,443,0,0,515
12,1,444,0,0,419
12,1,445,1,1,449
12,1,446,0,0,464
12,1,447,1,1,523
12,1,448,1,1,430
12,1,449,1,1,483
12,1,450,0,0,442
12,1,451,0,0,454
12,1,452,1,1,548
12,1,453,0,0,439
12,1,454,0,0,475
12,1,455,0,0,483
12,1,456,1,1,533
12,1,457,1,1,420
12,1,458,0,0,442
12,1,459,0,0,514
12,1,460,1,1,444
12,1,461,0,0,417
12,1,462,0,0,436
12,1,463,1,1,477
12,1,464,0,0,445
12,1,465,1,1,431
12,1,466,1,1,461
12,1,467,1,1,524
12,1,468,0,0,601
12,1,469,1,1,479
12,1,470,0,0,435
12,1,471,1,1,704
12,1,472,0,0,435
12,1,473,0,0,449
12,1,474,1,1,413
12,1,475,0,0,505
12,1,476,0,0,436
12,1,477,1,1,412
12,1,478,0,0,407
12,1,479,0,0,582
12,1,480,0,0,492
13,0,1,1,1,603
13,0,2,1,1,529
13,0,3,0,0,486
13,0,4,1,1,512
13,0,5,1,1,486
13,0,6,1,1,619
13,0,7,0,0,626
13,0,8,1,1,479
13,0,9,0,0,569
13,0,10,0,0,508
13,0,11,1,1,418
13,0,12,1,1,779
13,0,13,1,1,537
13,0,14,0,0,721
13,0,15,1,1,612
13,0,16,0,0,579
13,0,17,0,0,565
13,0,18,1,1,419
13,0,19,0,0,595
13,0,20,1,1,520
13,0,21,0,0,561
13,0,22,1,1,512
13,0,23,0,0,747
13,0,24,0,0,651
13,0,25,0,0,471
13,0,26,1,1,335
13,0,27,1,1,459
13,0,28,1,1,384
13,0,29,1,1,492
13,0,30,1,1,405
13,0,31,1,1,500
13,0,32,0,0,522
13,0,33,1,1,590
13,0,34,1,1,457
13,0,35,1,1,408
13,0,36,1,1,362
13,0,37,0,0,658
13,0,38,0,0,512
13,0,39,1,1,459
13,0,40,0,0,627
13,0,41,0,0,512
13,0,42,0,0,518
13,0,43,1,1,375
13,0,44,1,1,532
13,0,45,0,0,636
13,0,46,1,1,630
13,0,47,1,1,491
13,0,48,0,0,473
13,0,49,1,1,328
13,0,50,0,0,514
13,0,51,1,1,727
13,0,52,1,1,485
13,0,53,0,0,404
13,0,54,1,1,638
13,0,55,0,0,670
13,0,56,1,1,357
13,0,57,0,0,453
13,0,58,0,0,527
13,0,59,0,0,578
13,0,60,0,0,523
13,0,61,1,1,469
13,0,62,0,0,461
13,0,63,1,1,360
13,0,64,1,1,505
13,0,65,0,0,384
13,0,66,1,1,361
13,0,67,0,0,620
13,0,68,1,1,461
13,0,69,1,1,471
13,0,70,0,0,447
13,0,71,1,1,607
13,0,72,1,1,531
13,0,73,1,1,450
13,0,74,1,1,445
13,0,75,0,0,376
13,0,76,0,0,689
13,0,77,0,0,668
13,0,78,1,1,359
13,0,79,1,1,505
13,0,80,1,1,398
13,0,81,1,1,546
13,0,82,0,0,501
13,0,83,0,0,533
13,0,84,1,1,346
13,0,85,0,0,530
13,0,86,1,1,554
13,0,87,0,0,636
13,0,88,1,1,362
13,0,89,0,0,606
13,0,90,0,0,527
13,0,91,0,0,422
13,0,92,1,1,443
13,0,93,1,1,502
13,0,94,0,0,479
13,0,95,1,1,376
13,0,96,0,0,478
13,0,97,0,0,558
13,0,98,0,0,512
13,0,99,1,1,369
13,0,100,1,1,417
13,0,101,0,0,514
13,0,102,1,1,448
13,0,103,1,1,491
13,0,104,1,1,383
13,0,105,1,1,526
13,0,106,1,1,466
13,0,107,0,0,543
13,0,108,0,0,512
13,0,109,1,1,374
13,0,110,0,0,862
13,0,111,0,0,409
13,0,112,0,0,459
13,0,113,1,1,318
13,0,114,0,1,463
13,0,115,1,1,549
13,0,116,1,1,575
13,0,117,0,0,443
13,0,118,1,1,448
13,0,119,0,0,435
13,0,120,1,1,432
13,0,121,1,1,358
13,0,122,0,0,401
13,0,123,0,0,424
13,0,124,1,1,318
13,0,125,1,1,507
13,0,126,1,1,548
13,0,127,1,1,663
13,0,128,1,1,396
13,0,129,0,0,516
13,0,130,0,0,586
13,0,131,0,0,534
13,0,132,0,0,545
13,0,133,0,0,505
13,0,134,1,1,432
13,0,135,0,0,551
13,0,136,0,0,504
13,0,137,1,1,431
13,0,138,0,0,505
13,0,139,0,0,517
13,0,140,0,0,911
13,0,141,1,1,423
13,0,142,1,1,402
13,0,143,0,0,432
13,0,144,1,1,445
13,0,145,1,1,421
13,0,146,0,0,542
13,0,147,0,0,449
13,0,148,1,1,394
13,0,149,1,1,392
13,0,150,0,0,376
13,0,151,1,1,404
13,0,152,1,0,434
13,0,153,0,0,544
13,0,154,0,0,549
13,0,155,0,0,624
13,0,156,0,0,580
13,0,157,1,1,420
13,0,158,0,0,559
13,0,159,1,1,509
13,0,160,1,1,658
13,0,161,0,0,573
13,0,162,0,0,521
13,0,163,0,0,539
13,0,164,1,1,342
13,0,165,1,1,451
13,0,166,0,0,467
13,0,167,0,0,490
13,0,168,1,1,419
13,0,169,1,1,500
13,0,170,0,0,588
13,0,171,1,1,460
13,0,172,0,0,552
13,0,173,0,0,580
13,0,174,1,1,699
13,0,175,0,0,652
13,0,176,1,1,400
13,0,177,1,1,523
13,0,178,0,0,462
13,0,179,1,1,387
13,0,180,0,0,653
13,0,181,0,0,439
13,0,182,1,1,365
13,0,183,0,0,407
13,0,184,0,0,511
13,0,185,1,1,464
13,0,186,0,0,462
13,0,187,0,0,504
13,0,188,0,0,546
13,0,189,1,1,394
13,0,190,0,0,579
13,0,191,1,1,425
13,0,192,0,0,422
13,0,193,1,1,378
13,0,194,0,0,561
13,0,195,0,0,507
13,0,196,0,0,508
13,0,197,1,1,407
13,0,198,1,1,451
13,0,199,1,1,404
13,0,200,0,0,398
13,0,201,0,0,394
13,0,202,1,1,429
13,0,203,0,0,463
13,0,204,0,0,492
13,0,205,0,0,416
13,0,206,1,1,360
13,0,207,1,1,403
13,0,208,0,0,484
13,0,209,0,0,534
13,0,210,0,0,963
13,0,211,1,1,365
13,0,212,1,1,358
13,0,213,1,1,378
13,0,214,0,0,459
13,0,215,1,1,343
13,0,216,1,1,545
13,0,217,0,0,484
13,0,218,0,0,520
13,0,219,1,1,385
13,0,220,0,0,525
13,0,221,0,0,509
13,0,222,1,1,412
13,0,223,1,1,585
13,0,224,1,1,474
13,0,225,0,0,462
13,0,226,1,1,374
13,0,227,1,1,474
13,0,228,0,0,415
13,0,229,1,1,349
13,0,230,0,0,556
13,0,231,0,0,488
13,0,232,0,0,513
13,0,233,1,1,380
13,0,234,0,0,428
13,0,235,1,1,377
13,0,236,0,0,505
13,0,237,1,1,445
13,0,238,1,1,674
13,0,239,1,1,354
13,0,240,0,0,441
13,0,241,0,0,406
13,0,242,1,1,360
13,0,243,0,0,396
13,0,244,0,0,494
13,0,245,1,1,379
13,0,246,0,0,453
13,0,247,1,1,336
13,0,248,0,0,373
13,0,249,0,0,514
13,0,250,0,0,517
13,0,251,0,0,476
13,0,252,1,1,394
13,0,253,1,1,350
13,0,254,1,1,396
13,0,255,0,0,440
13,0,256,0,0,474
13,0,257,1,1,321
13,0,258,0,1,442
13,0,259,0,0,406
13,0,260,1,1,477
13,0,261,1,1,403
13,0,262,0,0,590
13,0,263,1,1,509
13,0,264,1,1,372
13,0,265,1,1,453
13,0,266,1,1,381
13,0,267,1,1,459
13,0,268,1,1,402
13,0,269,1,1,400
13,0,270,1,1,656
13,0,271,0,0,425
13,0,272,1,1,452
13,0,273,0,0,362
13,0,274,1,1,346
13,0,275,0,0,410
13,0,276,1,1,442
13,0,277,0,0,359
13,0,278,1,1,429
13,0,279,0,0,444
13,0,280,0,0,501
13,0,281,0,0,399
13,0,282,1,1,479
13,0,283,1,1,335
13,0,284,1,1,482
13,0,285,0,0,496
13,0,286,1,1,454
13,0,287,1,1,368
13,0,288,1,1,436
13,0,289,0,0,487
13,0,290,0,0,421
13,0,291,0,0,445
13,0,292,1,1,364
13,0,293,1,1,745
13,0,294,1,1,410
13,0,295,1,1,369
13,0,296,0,0,391
13,0,297,1,1,405
13,0,298,1,1,440
13,0,299,0,0,509
13,0,300,0,0,503
13,0,301,0,0,433
13,0,302,0,0,530
13,0,303,0,0,470
13,0,304,0,0,482
13,0,305,0,0,508
13,0,306,1,1,412
13,0,307,0,0,404
13,0,308,1,1,442
13,0,309,0,0,470
13,0,310,0,0,507
13,0,311,1,1,343
13,0,312,1,1,477
13,0,313,0,0,510
13,0,314,0,0,456
13,0,315,0,0,482
13,0,316,0,0,488
13,0,317,1,1,470
13,0,318,0,0,450
13,0,319,0,0,422
13,0,320,1,1,345
13,0,321,0,0,483
13,0,322,1,1,609
13,0,323,0,0,525
13,0,324,0,0,433
13,0,325,1,1,341
13,0,326,0,0,448
13,0,327,0,0,456
13,0,328,0,0,398
13,0,329,0,0,448
13,0,330,0,0,475
13,0,331,0,0,489
13,0,332,0,0,445
13,0,333,1,1,455
13,0,334,1,1,506
13,0,335,0,0,468
13,0,336,1,1,470
13,0,337,0,0,485
13,0,338,1,1,574
13,0,339,1,1,526
13,0,340,1,1,387
13,0,341,0,0,417
13,0,342,1,1,380
13,0,343,1,1,477
13,0,344,0,0,416
13,0,345,0,0,485
13,0,346,0,0,381
13,0,347,0,0,403
13,0,348,0,0,392
13,0,349,0,0,385
13,0,350,1,1,407
13,0,351,1,1,367
13,0,352,1,1,477
13,0,353,1,1,391
13,0,354,0,0,407
13,0,355,1,1,487
13,0,356,0,0,392
13,0,357,0,0,407
13,0,358,1,1,350
13,0,359,0,0,418
13,0,360,1,1,397
13,0,361,0,0,470
13,0,362,1,1,321
13,0,363,0,0,381
13,0,364,1,1,335
13,0,365,1,1,342
13,0,366,0,0,421
13,0,367,1,1,393
13,0,368,0,0,489
13,0,369,1,1,347
13,0,370,1,1,411
13,0,371,1,1,361
13,0,372,0,0,380
13,0,373,0,0,348
13,0,374,1,1,387
13,0,375,0,0,657
13,0,376,0,0,515
13,0,377,0,0,485
13,0,378,1,1,356
13,0,379,1,1,510
13,0,380,0,0,456
13,0,381,0,0,421
13,0,382,1,1,412
13,0,383,0,0,444
13,0,384,0,0,743
13,0,385,1,1,449
13,0,386,1,1,416
13,0,387,1,1,383
13,0,388,0,0,433
13,0,389,0,0,364
13,0,390,1,1,622
13,0,391,1,1,547
13,0,392,1,1,467
13,0,393,1,1,393
13,0,394,0,0,492
13,0,395,1,1,459
13,0,396,0,0,495
13,0,397,0,0,742
13,0,398,0,0,432
13,0,399,1,1,576
13,0,400,0,0,485
13,0,401,1,1,359
13,0,402,1,1,357
13,0,403,1,1,374
13,0,404,1,1,348
13,0,405,1,1,437
13,0,406,0,0,492
13,0,407,1,1,354
13,0,408,0,0,369
13,0,409,1,1,291
13,0,410,0,0,453
13,0,411,1,1,328
13,0,412,0,0,435
13,0,413,0,0,441
13,0,414,1,1,320
13,0,415,0,0,364
13,0,416,1,1,445
13,0,417,1,1,408
13,0,418,1,1,447
13,0,419,1,1,462
13,0,420,1,1,443
13,0,421,0,0,378
13,0,422,0,0,408
13,0,423,0,0,490
13,0,424,1,1,374
13,0,425,0,0,377
13,0,426,0,0,488
13,0,427,0,0,460
13,0,428,1,1,346
13,0,429,0,0,467
13,0,430,1,1,368
13,0,431,0,0,436
13,0,432,0,0,416
13,0,433,0,0,593
13,0,434,0,0,317
13,0,435,1,1,315
13,0,436,0,0,475
13,0,437,0,0,448
13,0,438,0,0,413
13,0,439,1,1,318
13,0,440,0,0,467
13,0,441,0,0,424
13,0,442,1,1,410
13,0,443,0,0,351
13,0,444,1,1,487
13,0,445,0,0,412
13,0,446,1,1,418
13,0,447,0,0,417
13,0,448,1,1,410
13,0,449,1,1,397
13,0,450,1,1,381
13,0,451,1,1,555
13,0,452,1,1,386
13,0,453,0,0,414
13,0,454,1,1,438
13,0,455,1,1,466
13,0,456,0,0,407
